Folder: thesis/assets/data/P25

Note: assets/data/P25/pxrd_topas_refinement.txt
data\Zn-precursor_200C.raw     RWP     6.46491     R_Bragg     2.06216     0.00000     Size    13.54317     1.24849     a_ZnO     3.25099     0.00012     c_ZnO     5.20844     0.00030     ZnO_Vol    47.67261     0.00446     wt%   100.00000     0.00000	 
data\Zn-precursor_300C.raw     RWP     6.01734     R_Bragg     1.66317     0.00000     Size    10.32521     0.46666     a_ZnO     3.24991     0.00012     c_ZnO     5.20835     0.00030     ZnO_Vol    47.64032     0.00457     wt%   100.00000     0.00000	 
data\Zn-precursor_400C.raw     RWP     6.06960     R_Bragg     1.60775     0.00000     Size    10.23137     0.36781     a_ZnO     3.24880     0.00011     c_ZnO     5.20745     0.00030     ZnO_Vol    47.59946     0.00430     wt%   100.00000     0.00000	 
data\Zn-precursor_500C.raw     RWP     7.09243     R_Bragg     1.83056     0.00000     Size    17.90464     0.48463     a_ZnO     3.24795     0.00007     c_ZnO     5.20435     0.00018     ZnO_Vol    47.54622     0.00259     wt%   100.00000     0.00000	 
data\Zn-precursor_600C.raw     RWP     7.89635     R_Bragg     1.71660     0.00000     Size    29.98183     0.94639     a_ZnO     3.24862     0.00005     c_ZnO     5.20466     0.00012     ZnO_Vol    47.56872     0.00172     wt%   100.00000     0.00000	 
data\Zn-precursor_700C.raw     RWP     7.92654     R_Bragg     1.49367     0.00000     Size    55.65514     1.61459     a_ZnO     3.24999     0.00003     c_ZnO     5.20631     0.00006     ZnO_Vol    47.62385     0.00095     wt%   100.00000     0.00000	 
data\Zn-precursor_800C.raw     RWP    10.98182     R_Bragg     1.68892     0.00000     Size   101.60747     6.98346     a_ZnO     3.24813     0.00003     c_ZnO     5.20256     0.00007     ZnO_Vol    47.53507     0.00108     wt%   100.00000     0.00000	 
data\Zn-precursor_900C.raw     RWP    19.85492     R_Bragg     5.04558     0.00000     Size   147.30740    12.18353     a_ZnO     3.24862     0.00003     c_ZnO     5.20274     0.00007     ZnO_Vol    47.55096     0.00107     wt%   100.00000     0.00000	 
data\Zn-precursor_1000C.raw     RWP     9.19694     R_Bragg     1.42419     0.00000     Size   223.26746    23.37948     a_ZnO     3.25011     0.00002     c_ZnO     5.20527     0.00005     ZnO_Vol    47.61800     0.00068     wt%   100.00000     0.00000

Note: assets/README.md
# Preamble notes

## Cross-references

For the sake of contrast and to guide the reader, cross-refs to objects inside
the thesis proper always use long-form (*figure 1*, *equation 2*)
whereas cross-refs to objects in our attached papers use the abbreviated form
(*fig. 4*) in addition to using small-caps and being trailed by the paper
number.
This is configured using `cleveref` macros (see `./assets/preamble/cleveref-settings.Rnw`).

+ https://links.solarchemist.se/shaare/GuXgNw


## Keeping non-text outside the main Rnw files, as much as possible

Stuff like `\includegraphics`, info boxes, etc.

I really need the files that I write in to be primarily text, not R code and
other stuff that distracts from writing.

So, I've decided to put each figure/box etc. into its own file inside `assets/aux/`.
They are included from their place in the parent file using R `child` chunks
(just in case the included file contains any R code).

Side-note for writing in VSCodium:
the LaTeX Workshop extension of VSCodium has a nice feature that allows you
to follow a path inside `\input{...}` just by placing the cursor on it
and pressing `F12`.
To make use of this time-saving feature, I've put a commented-out `input` line
next to each Rnw child chunk.

**Note** If you are working in VSCode Server, this `F12` shortcut only works when
running the browser in "app" mode. In a regular (non-appified) browser window
`F12` (in Chrome, Chromium and Firefox) simply opens the browser's developer view.


## Keeping `\section` commands visible in the VSCodium "Outline"

It is very useful and time-saving to navigate using the Outline functionality
in the VSCodium editor. But the Outline only shows headers that are part of
the currently open file (it does not detect nor follow Rnw children).

But it is also not workable to split the isolated R environments we have created
for each manuscript, and that precludes any way to natively include the section
commands.
This has become an issue now that I've decided to split the Results chapter
into more individual sections (rather than one section == one manuscript).

But I found a work-around by repeating the `\section{...}` commands *inside*
the Rnw chunk, as R comments.
This way, the VSCodium logic picks them up (it ignores commented out LaTeX
code, but luckily it does not check for R's comment character) and it does not
interfere with our R code.

Only downside is that we need to manually maintain correspondence between
those commented out section commands and the actual ones inside each manuscript's
`*-text.Rnw` file.
And one more thing, the R chunk in question will produce a warning in the knitr
output saying
```
In call_block(x) :
  The chunk ... has the 'child' option, and this code chunk must be empty. Its code will be ignored.
```
But I can live with that.



## LaTeX commands to keep in mind and use

| Command         | Example/output   | Defined by...             |
|-----------------|------------------|---------------------------

File: pxrd_diffractograms.csv
"thth","T200","T300","T400","T500","T600","T700","T800","T900"
10.0001,-70.5689,-10.51378,46.8837,107.483,166.7275,232.01,309.241,395.687
10.63394,-70.72892,-10.28708,48.1463,108.551,166.6938,232.017,308.9643,395.904
11.26778,-70.49032,-10.49262,47.57771,106.958,166.535,232.045,309.044,395.762
11.90162,-69.37576,-11.28592,48.16771,106.743,167.119,232.06,308.971,395.811
12.53546,-70.80904,-10.44868,48.56651,107.512,166.713,232.083,308.55,395.9
13.16929,-68.95552,-10.51378,47.30234,108.208,166.5787,231.816,308.664,395.7774
13.80313,-70.72945,-9.7068,45.8574,108.532,166.8763,231.941,308.286,396.239
14.43697,-70.85039,-10.21168,47.78922,107.941,166.7275,232.044,308.305,395.755
15.07081,-69.61214,-9.11341,48.14219,108.528,166.7,231.923,308.497,395.687
15.70465,-70.2751,-9.45399,47.06302,107.556,166.719,232.065,308.313,395.687
16.33849,-70.5689,-10.07553,47.72151,107.802,166.752,231.712,308.425,395.99
16.97233,-70.50813,-9.75928,46.77182,106.558,167.046,232.01,308.06,395.687
17.60616,-70.82923,-9.09039,47.19021,107.483,166.936,231.817,307.9504,395.772
18.24,-70.98142,-10.17173,45.92245,107.746,166.801,232.1124,307.934,395.997
18.87384,-70.46202,-10.52663,47.24573,108.082,166.6438,231.9826,308.043,395.687
19.50768,-69.94931,-9.68115,47.33958,107.038,167.0825,232.01,307.9813,395.823
20.14152,-70.5689,-10.32957,46.92302,107.808,166.671,231.943,307.904,395.687
20.77536,-70.7105,-10.51378,48.61318,107.467,166.661,232.095,307.951,395.727
21.4092,-69.99498,-10.11939,48.67745,108.134,166.657,232.082,308.036,395.967
22.04304,-70.68582,-9.40578,46.46896,107.473,166.592,231.745,307.912,395.843
22.67687,-71.23209,-9.14607,46.32479,108.21,166.84,232.01,307.99,395.9088
23.31071,-70.78285,-10.12886,46.72005,107.109,166.816,231.9888,307.986,395.903
23.94455,-68.99857,-9.01445,47.20589,107.111,166.756,232.033,307.903,395.761
24.57839,-70.34836,-10.69196,47.69906,106.718,166.865,232.05,307.772,395.687
25.21223,-70.54502,-9.79278,48.49193,106.89,166.632,231.968,307.771,395.742
25.84607,-71.03942,-11.38273,47.68219,107.581,166.881,231.841,307.866,396.009
26.47991,-69.03754,-10.74729,47.76167,107.881,166.825,232.028,307.879,395.852
27.11375,-69.23431,-9.4622,46.70865,107.707,166.9,232.078,307.86,395.687
27.74758,-70.3809,-10.28544,47.07432,107.028,166.732,231.866,308.034,395.818
28.38142,-70.9126,-9.17429,47.28823,108.609,166.832,231.871,308.034,395.7276
29.01526,-70.34328,-10.42402,46.09161,106.455,166.763,232.123,307.995,395.687
29.6491,-69.956,-9.98234,46.57438,107.443,166.558,231.739,308.013,395.941
30.28294,-70.09343,-10.25833,46.81052,108.598,167.01,232.122,308.48,395.99
30.91678,-64.23622,-2.88516,54.45036,111.92,166.884,232.0799,309.252,395.694
31.55062,-22.42089,46.41479,106.454,163.235,202.6,254.255,324.667,399.6237
32.18446,-44.58977,23.03521,88.30776,142.308,173.809,235.112,311.1277,396.108
32.81829,-70.81091,-9.49435,48.89307,110.856,166.899,232.276,309.606,395.827
33.45213,-67.93268,-7.43568,48.23464,108.652,166.9725,231.656,309.48,396.098
34.08597,-51.51061,12.61203,75.76078,133.997,177.541,237.007,312.7529,396.094
34.71981,-42.59483,21.47318,87.13682,137.365,177.945,239.279,314.008,401.133
35.35365,-54.13512,10.15969,69.99526,120.306,166.914,232.01,310.9427,396.048
35.98749,1.60068,75.95313,142.724,192.864,217.95,262.735,328.2947,401.099
36.62133,-26.4351,48.07333,118.743,168.127,186.428,243.344,313.545,398.969
37.25517,-62.76278,-2.51219,56.89875,113.293,167.348,232.114,310.314,395.687
37.889,-70.60199,-9.87492,50.3887,108.191,166.642,232.233,308.939,395.687
38.52284,-70.56802,-10.53859,48.4524,106.58,166.614,231.924,308.681,395.687
39.15668,-70.1252,-10.53658,46.07583,108.081,166.819,232.223,308.403,395.806
39.79052,-69.30085,-9.73056,48.67323,109.048,166.643,232.137,308.3227,395.71
40.42436,-69.21094,-8.60103,48.00646,107.901,166.692,232.043,308.099,395.687
41.0582,-69.37094,-10.04352,46.98005,107.566,166.669,231.793,308.109,395.96
41.69204,-70.02045,-9.32543,47.05349,108.063,166.848,232.132,308.018,395.787
42.32587,-69.87116,-11.04067,47.25911,107.872,166.833,232.125,307.9294,395.687
42.95971,-69.95527,-8.88264,46.74797,108.493,166.842,232.174,307.823,395.869
43.59355,-70.63713,-10.1423,47.23448,108.209,166.594,232.106,308.0086,395.991
44.22739,-69.60683,-10.51378,47.07734,108.014,166.85,232.1,307.888,395.726
44.86123,-71.05823,-10.45957,46.22969,107.572,166.965,231.911,307.888,395.861
45.49507,-70.99368,-10.0394,46.3488,106.94,166.9001,231.902,307.811,395.945
46.12891,-69.18817,-9.90433,46.90021,108.417,166.963,232.014,308.035,395.753
46.76275,-67.80643,-8.04067,51.07552,111.471,166.884,232.012,308.487,395.882
47.39658,-58.57428,2.24063,59.62844,121.661,186.065,254.2562,329.822,401.801
48.03042,-63.95038,-3.96214,54.82823,114.502,169.611,233.542,308.798,395.978
48.66426,-69.09548,-10.68427,48.05781,109.216,166.737,231.93,308.149,395.701
49.2981,-69.41145,-10.52543,46.31755,107.465,166.782,231.959,308.129,395.753
49.93194,-70.49042,-10.83701,47.97865,108.31,166.762,232.067,307.987,395.934
50.56578,-69.58325,-10.7349,46.22167,108.004,166.713,232.008,308.106,395.9749
51.19962,-69.12837,-10.51378,46.52833,106.897,166.707,232.082,307.942,395.687
51.83346,-70.51878,-9.68877,47.39891,108.106,167.047,232.01,307.846,395.687
52.46729,-69.60789,-9.81963,47.09141,108.513,166.6813,232.117,307.839,395.687
53.10113,-70.54594,-10.03188,46.75214,107.392,166.613,231.988,307.943,395.799
53.73497,-70.37351,-9.20667,46.99505,107.252,166.772,232.124,307.748,396.031
54.36881,-69.25754,-9.6821,47.53854,108.479,166.8337,232.081,308.271,395.716
55.00265,-70.56448,-9.23054,46.13026,106.893,166.613,231.943,308.268,395.687
55.63649,-68.97075,-7.49318,51.04818,110.491,166.796,232.036,308.379,395.952
56.27033,-53.74451,7.33083,67.92844,128.82,179.1451,239.934,313.867,397
56.90417,-58.13113,10.90755,71.02339,128.937,177.155,237.146,309.426,397.5976
57.538,-69.28023,-8.57018,49.7537,109.11,167.116,232.05,308.75,395.687
58.17184,-70.2008,-11.06316,46.96349,107.715,166.748,232.043,308.254,395.9074
58.80568,-70.95007,-10.53558,46.86479,107.691,166.768,231.984,308.271,396.005
59.43952,-70.07128,-10.02677,47.08042,108.4787,166.8125,232.107,308.2132,395.769
60.07336,-69.44814,-10.41098,48.1512,108.271,166.802,232.14,308.215,395.792
60.7072,-70.43251,-9.79103,47.14859,107.228,166.681,232.203,308.082,395.956
61.34104,-70.81486,-10.92314,48.49906,106.92,166.931,231.97,308.614,395.927
61.97488,-68.31281,-7.81198,49.66984,109.747,167.315,232.017,308.814,395.993
62.60871,-61.69206,1.61167,62.75875,121.996,183.579,244.594,317.6537,398.4051
63.24255,-64.04117,-0.46312,58.12505,116.672,174.097,235.868,309.506,396.194
63.87639,-70.51144,-9.26627,48.9362,109.171,166.902,231.922,308.581,395.701
64.51023,-71.2324,-9.84372,46.82411,108.074,166.785,232.1049,308.659,395.859
65.14407,-70.5689,-10.79244,46.79995,108.014,167.001,231.956,308.455,395.889
65.77791,-69.95341,-10.06881,46.84422,108.528,166.911,232.157,308.717,395.935
66.41175,-68.85359,-9.67702,47.25594,110.445,171.351,241.028,319.705,416.348
67.04559,-70.45513,-9.89833,47.7324,108.74,166.495,231.824,308.857,395.895
67.67942,-63.30047,-2.22354,58.29193,117.24,178.903,240.5751,314.891,397.686
68.31326,-64.34107,-2.75401,57.12312,117.423,172.105,234.431,309.914,398.151
68.9471,-65.45102,-5.42635,55.59271,113.334,177.4987,244.098,323.152,399.849
69.58094,-68.87949,-9.21314,50.61078,109.639,167.255,232.139,308.67,396.138
70.21478,-70.41658,-9.77269,48.44734,107.432,166.573,232.118,308.258,395.928
70.84862,-70.62713,-10.78885,47.74979,107.901,166.7513,231.994,308.03,395.815
71.48246,-70.38048,-9.85813,48.25938,108.563,166.628,232.1475,308.105,395.687
72.11629,-69.99053,-11.07692,46.86516,108.123,167.115,231.976,307.856,395.999
72.75013,-70.70702,-9.99373,47.46812,108.481,167.707,232.891,308.524,396.267
73.38397,-71.0694,-10.60107,47.18995,108.069,166.975,231.89,307.811,395.709
74.01781,-69.52402,-10.38051,47.44906,107.128,166.94,232.1,307.736,395.774
74.65165,-70.61158,-11.22495,47.17969,107.471,166.655,232.129,307.843,395.8376
75.28549,-70.34014,-9.94285,48.22922,108.5,166.894,232.01,307.636,395.75
75.91933,-70.51926,-10.45374,47.7213,107.243,166.923,232.244,307.7,395.745
76.55317,-70.59611,-10.19522,48.67568,107.728,167.238,232.161,308.214,395.862
77.187,-69.65588,-10.38784,47.67474,109.464,167.841,233.189,309.037,395.686
77.82084,-69.63019,-10.08343,47.12719,107.959,166.867,231.867,307.836,395.774
78.45468,-69.57493,-9.28443,46.87714,107.65,166.611,231.875,307.884,395.775
79.08852,-70.66984,-10.61238,46.38948,108.078,166.758,232.035,307.666,395.719
79.72236,-70.17866,-10.09816,48.09938,107.299,166.866,232.046,307.68,395.824
80.3562,-70.05455,-9.77085,47.2538,108.446,166.85,231.998,307.707,395.811
80.99004,-69.54207,-11.58746,47.04526,107.744,166.901,232.235,308.01,395.883
81.62388,-69.25156,-8.77041,46.68776,107.065,167.308,232.633,308.786,395.714
82.25771,-70.8846,-10.09157,47.20745,106.92,166.741,232.089,307.6171,396.101
82.89155,-70.2006,-10.38642,47.47802,106.915,166.948,232.068,307.528,395.832
83.52539,-69.50615,-10.74865,46.27896,108.815,166.737,231.958,307.591,395.706
84.15923,-69.86664,-10.87709,46.91052,107.755,166.883,232.018,307.6546,395.838
84.79307,-69.8893,-10.40139,46.77307,108.239,166.814,232.089,307.59,395.811
85.42691,-69.63054,-9.71664,46.8826,107.483,166.856,231.92,307.609,395.91
86.06075,-70.00081,-10.00256,46.80781,107.54,166.875,232.056,307.56,395.776
86.69459,-70.16964,-10.9235,46.61599,107.7713,166.739,232.065,307.768,395.687
87.32842,-70.17014,-9.27556,47.63448,106.99,166.727,232.068,307.888,395.799
87.96226,-70.46722,-10.05483,46.36536,107.3937,166.836,232.158,307.8722,395.687
88.5961,-70.5543,-10.36304,46.75214,106.955,166.882,231.8199,307.861,395.687
89.22994,-69.98937,-9.08351,46.81776,108.98,167.87,232.922,309.148,395.687
89.86378,-69.65155,-8.31459,47.73042,109.445,168.271,234.012,310.004,395.76
89.98646,-70.5689,-10.51378,46.8837,107.483,166.7275,232.01,309.398,395.687