Folder: thesis/assets/data/P12/uvvis (part 2)

File: air.txt
SpectraSuite Data File
++++++++++++++++++++++++++++++++++++
Date: Tue Mar 29 10:28:00 CEST 2016
User: IPCE
Dark Spectrum Present: Yes
Reference Spectrum Present: Yes
Number of Sampled Component Spectra: 1
Spectrometers: HR+C0708
Integration Time (usec): 1000 (HR+C0708)
Spectra Averaged: 10 (HR+C0708)
Boxcar Smoothing: 0 (HR+C0708)
Correct for Electrical Dark: No (HR+C0708)
Strobe/Lamp Enabled: No (HR+C0708)
Correct for Detector Non-linearity: No (HR+C0708)
Correct for Stray Light: No (HR+C0708)
Number of Pixels in Processed Spectrum: 2048
>>>>>Begin Processed Spectral Data<<<<<
188.76	0.209
192.06	0.447
195.37	0.177
198.67	0.112
201.97	0.046
205.28	0.079
208.58	-0.010
211.88	0.110
215.18	0.137
218.47	0.126
221.77	0.085
225.06	0.051
228.36	0.045
231.65	0.044
234.94	0.039
238.23	0.036
241.52	0.033
244.81	0.035
248.10	0.036
251.39	0.033
254.67	0.032
257.95	0.031
261.24	0.032
264.52	0.030
267.80	0.029
271.08	0.030
274.36	0.028
277.63	0.028
280.91	0.027
284.18	0.029
287.46	0.025
290.73	0.026
294.00	0.025
297.27	0.026
300.54	0.024
303.81	0.025
307.07	0.024
310.34	0.024
313.60	0.024
316.86	0.025
320.13	0.022
323.39	0.022
326.64	0.023
329.90	0.022
333.16	0.020
336.42	0.021
339.67	0.020
342.92	0.021
346.17	0.019
349.43	0.019
352.67	0.023
355.92	0.017
359.17	0.021
362.42	0.021
365.66	0.022
368.90	0.021
372.15	0.020
375.39	0.020
378.63	0.020
381.87	0.021
385.10	0.017
388.34	0.021
391.57	0.019
394.81	0.020
398.04	0.018
401.27	0.019
404.50	0.017
407.73	0.017
410.96	0.018
414.18	0.019
417.41	0.016
420.63	0.017
423.85	0.019
427.07	0.021
430.29	0.018
433.51	0.018
436.73	0.020
439.94	0.016
443.16	0.014
446.37	0.017
449.58	0.018
452.79	0.019
456.00	0.016
459.21	0.017
462.42	0.016
465.62	0.016
468.83	0.015
472.03	0.021
475.23	0.017
478.43	0.017
481.63	0.017
484.83	0.018
488.03	0.015
491.22	0.016
494.42	0.015
497.61	0.014
500.80	0.014
503.99	0.015
507.18	0.016
510.36	0.015
513.55	0.016
516.73	0.013
519.92	0.015
523.10	0.013
526.28	0.016
529.46	0.017
532.64	0.016
535.81	0.015
538.99	0.016
542.16	0.016
545.34	0.016
548.51	0.013
551.68	0.016
554.84	0.015
558.01	0.013
561.18	0.014
564.34	0.014
567.50	0.016
570.67	0.015
573.83	0.014
576.98	0.013
580.14	0.014
583.30	0.013
586.45	0.011
589.61	0.013
592.76	0.014
595.91	0.013
599.06	0.014
602.21	0.013
605.35	0.013
608.50	0.012
611.64	0.013
614.78	0.013
617.92	0.013
621.06	0.013
624.20	0.010
627.34	0.012
630.47	0.014
633.61	0.013
636.74	0.012
639.87	0.013
643.00	0.012
646.13	0.013
649.25	0.012
652.38	0.014
655.50	0.013
658.62	0.013
661.74	0.011
664.86	0.013
667.98	0.014
671.10	0.012
674.21	0.012
677.33	0.013
680.44	0.008
683.55	0.012
686.66	0.013
689.77	0.014
692.87	0.013
695.98	0.012
699.08	0.013
702.18	0.013
705.28	0.013
708.38	0.011
711.48	0.010
714.58	0.011
717.67	0.011
720.76	0.013
723.86	0.011
726.95	0.010
730.03	0.012
733.12	0.011
736.21	0.010
739.29	0.010
742.37	0.009
745.46	0.012
748.54	0.009
751.61	0.011
754.69	0.010
757.77	0.013
760.84	0.011
763.91	0.010
766.98	0.009
770.05	0.007
773.12	0.009
776.19	0.008
779.25	0.009
782.31	0.011
785.37	0.008
788.43	0.008
791.49	0.009
794.55	0.010
797.61	0.010
800.66	0.011
803.71	0.008
806.76	0.008
809.81	0.008
812.86	0.008
815.91	0.004
818.95	0.008
821.99	0.002
825.04	0.006
828.08	0.002
831.11	0.007
834.15	0.006
837.19	0.007
840.22	0.006
843.25	0.005
846.28	0.011
849.31	0.004
852.34	0.006
855.36	0.008
858.39	0.003
861.41	0.005
864.43	0.013
867.45	0.009
870.47	0.007
873.49	0.005
876.50	0.007
879.51	0.007
882.53	0.006
885.54	0.003
888.54	0.005
891.55	0.010
894.56	0.007
897.56	0.006
900.56	0.002
903.56	0.007
906.56	0.003
909.56	0.003
912.55	0.011
915.55	0.004
918.54	0.009
921.53	0.005
924.52	0.007
927.50	0.006
930.49	0.009
933.47	0.008
936.46	0.006
939.44	0.011
942.42	0.002
945.39	0.012
948.37	-0.001
951.34	0.002
954.32	0.007
957.29	0.011
960.26	0.006
963.22	0.001
966.19	0.009
969.15	0.010
972.12	0.008
975.08	0.006
978.04	0.008
980.99	0.011
983.95	0.009
986.90	0.008
989.86	0.005
992.81	0.010
995.76	0.008
998.70	0.012
1001.65	0.010
1004.59	0.012
1007.54	-0.002
1010.48	0.009
1013.42	0.008
1016.35	0.006
1019.29	0.002
1022.22	0.003
1025.15	0.013
1028.08	0.009
1031.01	0.019
1033.94	0.026
1036.87	0.006
1039.79	0.024
1042.71	0.023
1045.63	0.019
1048.55	0.016
1051.47	0.020
1054.38	0.037
1057.29	0.044
1060.21	0.001
1063.12	0.055
1066.02	-0.011
1068.93	0.044
1071.83	0.134
1074.74	0.118
1077.64	0.093
1080.54	0.024
1083.44	-0.037
1086.33	0.294
1089.22	0.903
1092.12	0.753
1095.01	0.009
1097.90	0.347
1099.13	0.338
>>>>>End Processed Spectral Data<<<<<

File: cuvette+EtOH.txt
SpectraSuite Data File
++++++++++++++++++++++++++++++++++++
Date: Tue Mar 29 10:35:07 CEST 2016
User: IPCE
Dark Spectrum Present: Yes
Reference Spectrum Present: Yes
Number of Sampled Component Spectra: 1
Spectrometers: HR+C0708
Integration Time (usec): 1000 (HR+C0708)
Spectra Averaged: 10 (HR+C0708)
Boxcar Smoothing: 0 (HR+C0708)
Correct for Electrical Dark: No (HR+C0708)
Strobe/Lamp Enabled: No (HR+C0708)
Correct for Detector Non-linearity: No (HR+C0708)
Correct for Stray Light: No (HR+C0708)
Number of Pixels in Processed Spectrum: 2048
>>>>>Begin Processed Spectral Data<<<<<
188.76	0.356
192.06	-0.065
195.37	0.458
198.67	-0.195
201.97	0.220
205.28	0.209
208.58	0.252
211.88	0.399
215.18	0.445
218.47	0.567
221.77	0.649
225.06	0.922
228.36	1.126
231.65	1.508
234.94	1.685
238.23	1.938
241.52	2.070
244.81	2.097
248.10	2.114
251.39	2.084
254.67	1.756
257.95	1.290
261.24	1.019
264.52	0.828
267.80	0.681
271.08	0.571
274.36	0.481
277.63	0.409
280.91	0.348
284.18	0.305
287.46	0.257
290.73	0.210
294.00	0.177
297.27	0.153
300.54	0.128
303.81	0.110
307.07	0.092
310.34	0.076
313.60	0.067
316.86	0.060
320.13	0.051
323.39	0.049
326.64	0.046
329.90	0.037
333.16	0.032
336.42	0.031
339.67	0.030
342.92	0.025
346.17	0.024
349.43	0.023
352.67	0.025
355.92	0.018
359.17	0.017
362.42	0.017
365.66	0.018
368.90	0.016
372.15	0.013
375.39	0.015
378.63	0.016
381.87	0.014
385.10	0.010
388.34	0.013
391.57	0.010
394.81	0.010
398.04	0.011
401.27	0.011
404.50	0.008
407.73	0.010
410.96	0.011
414.18	0.009
417.41	0.008
420.63	0.008
423.85	0.009
427.07	0.011
430.29	0.008
433.51	0.010
436.73	0.009
439.94	0.010
443.16	0.007
446.37	0.009
449.58	0.007
452.79	0.007
456.00	0.007
459.21	0.008
462.42	0.007
465.62	0.006
468.83	0.006
472.03	0.006
475.23	0.005
478.43	0.006
481.63	0.005
484.83	0.005
488.03	0.004
491.22	0.005
494.42	0.002
497.61	0.003
500.80	0.003
503.99	0.004
507.18	0.003
510.36	0.004
513.55	0.002
516.73	0.001
519.92	0.001
523.10	0.001
526.28	0.003
529.46	0.005
532.64	0.002
535.81	0.002
538.99	0.004
542.16	0.002
545.34	0.002
548.51	0.001
551.68	0.002
554.84	0.000
558.01	0.002
561.18	-0.000
564.34	0.001
567.50	0.001
570.67	0.002
573.83	0.001
576.98	-0.000
580.14	0.000
583.30	-0.001
586.45	-0.000
589.61	0.000
592.76	-0.000
595.91	-0.001
599.06	-0.001
602.21	-0.000
605.35	-0.003
608.50	-0.002
611.64	-0.001
614.78	-0.001
617.92	-0.001
621.06	-0.003
624.20	-0.002
627.34	-0.002
630.47	-0.002
633.61	-0.002
636.74	-0.001
639.87	-0.002
643.00	-0.002
646.13	-0.002
649.25	-0.003
652.38	-0.002
655.50	-0.002
658.62	-0.004
661.74	-0.005
664.86	-0.004
667.98	-0.004
671.10	-0.004
674.21	-0.004
677.33	-0.003
680.44	-0.006
683.55	-0.005
686.66	-0.004
689.77	-0.005
692.87	-0.005
695.98	-0.004
699.08	-0.005
702.18	-0.004
705.28	-0.004
708.38	-0.005
711.48	-0.003
714.58	-0.004
717.67	-0.002
720.76	-0.003
723.86	-0.004
726.95	-0.004
730.03	-0.002
733.12	-0.002
736.21	-0.002
739.29	0.001
742.37	0.002
745.46	0.003
748.54	-0.001
751.61	0.000
754.69	0.002
757.77	0.002
760.84	0.000
763.91	0.001
766.98	0.002
770.05	-0.001
773.12	0.004
776.19	0.001
779.25	0.002
782.31	0.001
785.37	0.003
788.43	0.001
791.49	-0.002
794.55	0.001
797.61	0.003
800.66	0.002
803.71	0.002
806.76	0.002
809.81	0.002
812.86	0.003
815.91	-0.002
818.95	0.003
821.99	0.001
825.04	0.003
828.08	-0.001
831.11	0.001
834.15	0.003
837.19	0.003
840.22	0.001
843.25	0.004
846.28	0.006
849.31	0.002
852.34	0.004
855.36	0.008
858.39	0.001
861.41	0.003
864.43	0.008
867.45	0.009
870.47	0.000
873.49	0.009
876.50	0.010
879.51	0.017
882.53	0.016
885.54	0.015
888.54	0.016
891.55	0.023
894.56	0.029
897.56	0.033
900.56	0.044
903.56	0.055
906.56	0.059
909.56	0.066
912.55	0.058
915.55	0.044
918.54	0.039
921.53	0.038
924.52	0.037
927.50	0.035
930.49	0.036
933.47	0.031
936.46	0.037
939.44	0.039
942.42	0.034
945.39	0.028
948.37	0.027
951.34	0.016
954.32	0.023
957.29	0.022
960.26	0.025
963.22	0.022
966.19	0.024
969.15	0.030
972.12	0.028
975.08	0.031
978.04	0.030
980.99	0.035
983.95	0.037
986.90	0.041
989.86	0.042
992.81	0.044
995.76	0.050
998.70	0.053
1001.65	0.058
1004.59	0.066
1007.54	0.059
1010.48	0.074
1013.42	0.074
1016.35	0.070
1019.29	0.064
1022.22	0.082
1025.15	0.071
1028.08	0.068
1031.01	0.064
1033.94	0.072
1036.87	0.067
1039.79	0.079
1042.71	0.081
1045.63	0.072
1048.55	0.092
1051.47	0.082
1054.38	0.072
1057.29	0.055
1060.21	0.056
1063.12	0.096
1066.02	0.042
1068.93	0.142
1071.83	0.069
1074.74	0.258
1077.64	0.259
1080.54	0.362
1083.44	0.141
1086.33	0.382
1089.22	0.287
1092.12	-0.000
1095.01	0.223
1097.90	0.177
1099.13	0.423
>>>>>End Processed Spectral Data<<<<<

File: cuvette+water.txt
SpectraSuite Data File
++++++++++++++++++++++++++++++++++++
Date: Tue Mar 29 10:36:14 CEST 2016
User: IPCE
Dark Spectrum Present: Yes
Reference Spectrum Present: Yes
Number of Sampled Component Spectra: 1
Spectrometers: HR+C0708
Integration Time (usec): 1000 (HR+C0708)
Spectra Averaged: 10 (HR+C0708)
Boxcar Smoothing: 0 (HR+C0708)
Correct for Electrical Dark: No (HR+C0708)
Strobe/Lamp Enabled: No (HR+C0708)
Correct for Detector Non-linearity: No (HR+C0708)
Correct for Stray Light: No (HR+C0708)
Number of Pixels in Processed Spectrum: 2048
>>>>>Begin Processed Spectral Data<<<<<
188.76	0.663
192.06	0.076
195.37	0.935
198.67	-0.038
201.97	0.288
205.28	0.215
208.58	0.384
211.88	0.250
215.18	0.417
218.47	0.527
221.77	0.716
225.06	1.188
228.36	1.182
231.65	1.624
234.94	1.707
238.23	1.981
241.52	2.017
244.81	2.088
248.10	2.194
251.39	2.091
254.67	1.709
257.95	1.239
261.24	0.972
264.52	0.775
267.80	0.629
271.08	0.513
274.36	0.422
277.63	0.352
280.91	0.296
284.18	0.255
287.46	0.223
290.73	0.193
294.00	0.164
297.27	0.141
300.54	0.120
303.81	0.101
307.07	0.085
310.34	0.074
313.60	0.063
316.86	0.057
320.13	0.050
323.39	0.046
326.64	0.045
329.90	0.037
333.16	0.034
336.42	0.034
339.67	0.030
342.92	0.029
346.17	0.027
349.43	0.027
352.67	0.028
355.92	0.025
359.17	0.025
362.42	0.026
365.66	0.025
368.90	0.025
372.15	0.020
375.39	0.020
378.63	0.023
381.87	0.022
385.10	0.020
388.34	0.020
391.57	0.019
394.81	0.018
398.04	0.020
401.27	0.018
404.50	0.017
407.73	0.017
410.96	0.018
414.18	0.017
417.41	0.016
420.63	0.019
423.85	0.018
427.07	0.019
430.29	0.017
433.51	0.019
436.73	0.019
439.94	0.015
443.16	0.015
446.37	0.019
449.58	0.014
452.79	0.016
456.00	0.015
459.21	0.016
462.42	0.016
465.62	0.013
468.83	0.015
472.03	0.017
475.23	0.016
478.43	0.016
481.63	0.013
484.83	0.015
488.03	0.012
491.22	0.012
494.42	0.012
497.61	0.014
500.80	0.013
503.99	0.014
507.18	0.012
510.36	0.014
513.55	0.013
516.73	0.010
519.92	0.014
523.10	0.010
526.28	0.011
529.46	0.014
532.64	0.012
535.81	0.010
538.99	0.013
542.16	0.010
545.34	0.012
548.51	0.010
551.68	0.010
554.84	0.009
558.01	0.010
561.18	0.009
564.34	0.012
567.50	0.012
570.67	0.011
573.83	0.009
576.98	0.010
580.14	0.009
583.30	0.008
586.45	0.009
589.61	0.008
592.76	0.010
595.91	0.008
599.06	0.009
602.21	0.010
605.35	0.008
608.50	0.009
611.64	0.008
614.78	0.008
617.92	0.007
621.06	0.007
624.20	0.006
627.34	0.008
630.47	0.008
633.61	0.008
636.74	0.008
639.87	0.007
643.00	0.007
646.13	0.007
649.25	0.007
652.38	0.008
655.50	0.006
658.62	0.006
661.74	0.006
664.86	0.007
667.98	0.009
671.10	0.007
674.21	0.009
677.33	0.007
680.44	0.005
683.55	0.006
686.66	0.007
689.77	0.009
692.87	0.006
695.98	0.008
699.08	0.007
702.18	0.008
705.28	0.008
708.38	0.006
711.48	0.009
714.58	0.007
717.67	0.009
720.76	0.010
723.86	0.011
726.95	0.011
730.03	0.011
733.12	0.010
736.21	0.012
739.29	0.014
742.37	0.016
745.46	0.018
748.54	0.017
751.61	0.017
754.69	0.014
757.77	0.017
760.84	0.016
763.91	0.016
766.98	0.014
770.05	0.013
773.12	0.016
776.19	0.016
779.25	0.015
782.31	0.017
785.37	0.015
788.43	0.014
791.49	0.011
794.55	0.012
797.61	0.012
800.66	0.013
803.71	0.012
806.76	0.014
809.81	0.014
812.86	0.014
815.91	0.012
818.95	0.015
821.99	0.006
825.04	0.014
828.08	0.012
831.11	0.016
834.15	0.017
837.19	0.020
840.22	0.019
843.25	0.018
846.28	0.021
849.31	0.021
852.34	0.020
855.36	0.023
858.39	0.023
861.41	0.023
864.43	0.026
867.45	0.033
870.47	0.019
873.49	0.031
876.50	0.026
879.51	0.028
882.53	0.031
885.54	0.029
888.54	0.031
891.55	0.034
894.56	0.035
897.56	0.037
900.56	0.039
903.56	0.038
906.56	0.039
909.56	0.035
912.55	0.047
915.55	0.038
918.54	0.041
921.53	0.048
924.52	0.046
927.50	0.053
930.49	0.062
933.47	0.066
936.46	0.074
939.44	0.086
942.42	0.084
945.39	0.105
948.37	0.116
951.34	0.130
954.32	0.160
957.29	0.179
960.26	0.192
963.22	0.198
966.19	0.203
969.15	0.213
972.12	0.211
975.08	0.215
978.04	0.216
980.99	0.219
983.95	0.212
986.90	0.217
989.86	0.200
992.81	0.201
995.76	0.196
998.70	0.196
1001.65	0.189
1004.59	0.185
1007.54	0.179
1010.48	0.169
1013.42	0.168
1016.35	0.144
1019.29	0.139
1022.22	0.134
1025.15	0.139
1028.08	0.134
1031.01	0.121
1033.94	0.125
1036.87	0.128
1039.79	0.125
1042.71	0.117
1045.63	0.117
1048.55	0.087
1051.47	0.105
1054.38	0.087
1057.29	0.124
1060.21	0.109
1063.12	0.101
1066.02	0.110
1068.93	0.115
1071.83	0.216
1074.74	0.076
1077.64	0.165
1080.54	-0.042
1083.44	0.185
1086.33	0.349
1089.22	0.335
1092.12	-0.000
1095.01	0.259
1097.90	0.585
1099.13	0.356
>>>>>End Processed Spectral Data<<<<<

File: cuvette-4sides-clear.txt
SpectraSuite Data File
++++++++++++++++++++++++++++++++++++
Date: Sun Apr 24 18:33:24 CEST 2016
User: spectrasuite
Dark Spectrum Present: Yes
Reference Spectrum Present: Yes
Number of Sampled Component Spectra: 1
Spectrometers: HR+C0708
Integration Time (usec): 1000 (HR+C0708)
Spectra Averaged: 10 (HR+C0708)
Boxcar Smoothing: 0 (HR+C0708)
Correct for Electrical Dark: No (HR+C0708)
Strobe/Lamp Enabled: No (HR+C0708)
Correct for Detector Non-linearity: No (HR+C0708)
Correct for Stray Light: No (HR+C0708)
Number of Pixels in Processed Spectrum: 2048
>>>>>Begin Processed Spectral Data<<<<<
188.76	0.369
192.06	0.270
195.37	-0.000
198.67	0.236
201.97	0.272
205.28	0.198
208.58	0.252
211.88	0.283
215.18	0.297
218.47	0.226
221.77	0.257
225.06	0.536
228.36	0.811
231.65	1.098
234.94	1.473
238.23	1.667
241.52	1.928
244.81	2.019
248.10	2.042
251.39	1.950
254.67	1.221
257.95	0.858
261.24	0.681
264.52	0.569
267.80	0.483
271.08	0.415
274.36	0.359
277.63	0.313
280.91	0.278
284.18	0.251
287.46	0.226
290.73	0.208
294.00	0.194
297.27	0.184
300.54	0.174
303.81	0.168
307.07	0.158
310.34	0.150
313.60	0.139
316.86	0.132
320.13	0.123
323.39	0.117
326.64	0.113
329.90	0.107
333.16	0.102
336.42	0.098
339.67	0.097
342.92	0.093
346.17	0.090
349.43	0.091
352.67	0.093
355.92	0.091
359.17	0.087
362.42	0.088
365.66	0.083
368.90	0.082
372.15	0.083
375.39	0.080
378.63	0.080
381.87	0.079
385.10	0.080
388.34	0.078
391.57	0.079
394.81	0.079
398.04	0.078
401.27	0.076
404.50	0.078
407.73	0.077
410.96	0.079
414.18	0.076
417.41	0.075
420.63	0.075
423.85	0.074
427.07	0.074
430.29	0.076
433.51	0.074
436.73	0.073
439.94	0.073
443.16	0.072
446.37	0.071
449.58	0.073
452.79	0.072
456.00	0.072
459.21	0.074
462.42	0.072
465.62	0.071
468.83	0.068
472.03	0.070
475.23	0.072
478.43	0.070
481.63	0.071
484.83	0.067
488.03	0.070
491.22	0.069
494.42	0.070
497.61	0.068
500.80	0.066
503.99	0.067
507.18	0.069
510.36	0.067
513.55	0.069
516.73	0.070
519.92	0.069
523.10	0.067
526.28	0.066
529.46	0.068
532.64	0.068
535.81	0.066
538.99	0.068
542.16	0.069
545.34	0.068
548.51	0.065
551.68	0.068
554.84	0.065
558.01	0.067
561.18	0.066
564.34	0.066
567.50	0.064
570.67	0.065
573.83	0.064
576.98	0.065
580.14	0.061
583.30	0.065
586.45	0.064
589.61	0.062
592.76	0.064
595.91	0.065
599.06	0.064
602.21	0.062
605.35	0.065
608.50	0.063
611.64	0.065
614.78	0.061
617.92	0.065
621.06	0.065
624.20	0.062
627.34	0.063
630.47	0.061
633.61	0.063
636.74	0.063
639.87	0.063
643.00	0.062
646.13	0.064
649.25	0.065
652.38	0.064
655.50	0.062
658.62	0.064
661.74	0.063
664.86	0.061
667.98	0.063
671.10	0.062
674.21	0.062
677.33	0.061
680.44	0.064
683.55	0.064
686.66	0.061
689.77	0.063
692.87	0.061
695.98	0.062
699.08	0.064
702.18	0.063
705.28	0.064
708.38	0.063
711.48	0.065
714.58	0.064
717.67	0.065
720.76	0.064
723.86	0.064
726.95	0.063
730.03	0.064
733.12	0.063
736.21	0.064
739.29	0.066
742.37	0.062
745.46	0.066
748.54	0.066
751.61	0.065
754.69	0.064
757.77	0.063
760.84	0.062
763.91	0.064
766.98	0.063
770.05	0.062
773.12	0.061
776.19	0.061
779.25	0.063
782.31	0.061
785.37	0.062
788.43	0.062
791.49	0.063
794.55	0.062
797.61	0.064
800.66	0.063
803.71	0.062
806.76	0.064
809.81	0.061
812.86	0.062
815.91	0.061
818.95	0.061
821.99	0.062
825.04	0.060
828.08	0.062
831.11	0.063
834.15	0.061
837.19	0.065
840.22	0.061
843.25	0.060
846.28	0.058
849.31	0.062
852.34	0.062
855.36	0.056
858.39	0.064
861.41	0.066
864.43	0.062
867.45	0.063
870.47	0.067
873.49	0.066
876.50	0.065
879.51	0.065
882.53	0.069
885.54	0.059
888.54	0.062
891.55	0.061
894.56	0.064
897.56	0.065
900.56	0.072
903.56	0.064
906.56	0.063
909.56	0.064
912.55	0.067
915.55	0.063
918.54	0.063
921.53	0.063
924.52	0.063
927.50	0.064
930.49	0.063
933.47	0.066
936.46	0.067
939.44	0.055
942.42	0.062
945.39	0.066
948.37	0.061
951.34	0.063
954.32	0.061
957.29	0.058
960.26	0.063
963.22	0.059
966.19	0.062
969.15	0.059
972.12	0.059
975.08	0.067
978.04	0.053
980.99	0.058
983.95	0.062
986.90	0.059
989.86	0.061
992.81	0.064
995.76	0.056
998.70	0.066
1001.65	0.068
1004.59	0.062
1007.54	0.059
1010.48	0.064
1013.42	0.065
1016.35	0.063
1019.29	0.062
1022.22	0.064
1025.15	0.061
1028.08	0.072
1031.01	0.074
1033.94	0.056
1036.87	0.053
1039.79	0.068
1042.71	0.055
1045.63	0.067
1048.55	0.057
1051.47	0.077
1054.38	0.071
1057.29	0.029
1060.21	0.021
1063.12	0.051
1066.02	0.062
1068.93	-0.015
1071.83	-0.013
1074.74	0.029
1077.64	0.055
1080.54	-0.006
1083.44	0.087
1086.33	0.033
1089.22	0.647
1092.12	0.068
1095.01	0.196
1097.90	0.115
1099.13	0.316
>>>>>End Processed Spectral Data<<<<<

File: cuvette.txt
SpectraSuite Data File
++++++++++++++++++++++++++++++++++++
Date: Tue Mar 29 10:29:44 CEST 2016
User: IPCE
Dark Spectrum Present: Yes
Reference Spectrum Present: Yes
Number of Sampled Component Spectra: 1
Spectrometers: HR+C0708
Integration Time (usec): 1000 (HR+C0708)
Spectra Averaged: 10 (HR+C0708)
Boxcar Smoothing: 0 (HR+C0708)
Correct for Electrical Dark: No (HR+C0708)
Strobe/Lamp Enabled: No (HR+C0708)
Correct for Detector Non-linearity: No (HR+C0708)
Correct for Stray Light: No (HR+C0708)
Number of Pixels in Processed Spectrum: 2048
>>>>>Begin Processed Spectral Data<<<<<
188.76	0.137
192.06	-0.008
195.37	0.231
198.67	-0.286
201.97	0.239
205.28	0.303
208.58	0.246
211.88	0.308
215.18	0.508
218.47	0.759
221.77	0.709
225.06	0.878
228.36	1.223
231.65	1.468
234.94	1.812
238.23	2.088
241.52	2.085
244.81	2.122
248.10	2.218
251.39	2.085
254.67	1.718
257.95	1.302
261.24	1.026
264.52	0.837
267.80	0.691
271.08	0.578
274.36	0.483
277.63	0.412
280.91	0.358
284.18	0.311
287.46	0.277
290.73	0.240
294.00	0.217
297.27	0.190
300.54	0.168
303.81	0.151
307.07	0.134
310.34	0.123
313.60	0.112
316.86	0.106
320.13	0.098
323.39	0.093
326.64	0.090
329.90	0.086
333.16	0.082
336.42	0.080
339.67	0.079
342.92	0.076
346.17	0.078
349.43	0.073
352.67	0.076
355.92	0.070
359.17	0.071
362.42	0.069
365.66	0.069
368.90	0.068
372.15	0.065
375.39	0.067
378.63	0.065
381.87	0.068
385.10	0.060
388.34	0.063
391.57	0.062
394.81	0.064
398.04	0.061
401.27	0.062
404.50	0.062
407.73	0.061
410.96	0.060
414.18	0.060
417.41	0.060
420.63	0.060
423.85	0.060
427.07	0.062
430.29	0.059
433.51	0.058
436.73	0.060
439.94	0.057
443.16	0.052
446.37	0.055
449.58	0.058
452.79	0.056
456.00	0.054
459.21	0.055
462.42	0.053
465.62	0.053
468.83	0.053
472.03	0.054
475.23	0.054
478.43	0.053
481.63	0.052
484.83	0.053
488.03	0.050
491.22	0.052
494.42	0.050
497.61	0.052
500.80	0.050
503.99	0.052
507.18	0.051
510.36	0.051
513.55	0.051
516.73	0.048
519.92	0.049
523.10	0.048
526.28	0.049
529.46	0.050
532.64	0.049
535.81	0.048
538.99	0.052
542.16	0.049
545.34	0.048
548.51	0.048
551.68	0.048
554.84	0.046
558.01	0.046
561.18	0.046
564.34	0.047
567.50	0.047
570.67	0.047
573.83	0.044
576.98	0.043
580.14	0.044
583.30	0.043
586.45	0.042
589.61	0.042
592.76	0.045
595.91	0.042
599.06	0.044
602.21	0.044
605.35	0.042
608.50	0.042
611.64	0.043
614.78	0.042
617.92	0.043
621.06	0.040
624.20	0.041
627.34	0.041
630.47	0.042
633.61	0.043
636.74	0.040
639.87	0.042
643.00	0.041
646.13	0.041
649.25	0.039
652.38	0.042
655.50	0.040
658.62	0.041
661.74	0.040
664.86	0.042
667.98	0.041
671.10	0.043
674.21	0.042
677.33	0.040
680.44	0.040
683.55	0.042
686.66	0.040
689.77	0.042
692.87	0.042
695.98	0.042
699.08	0.041
702.18	0.043
705.28	0.042
708.38	0.040
711.48	0.042
714.58	0.042
717.67	0.043
720.76	0.043
723.86	0.043
726.95	0.042
730.03	0.043
733.12	0.041
736.21	0.042
739.29	0.041
742.37	0.043
745.46	0.043
748.54	0.042
751.61	0.042
754.69	0.044
757.77	0.044
760.84	0.043
763.91	0.042
766.98	0.043
770.05	0.040
773.12	0.044
776.19	0.042
779.25	0.041
782.31	0.044
785.37	0.045
788.43	0.040
791.49	0.043
794.55	0.042
797.61	0.045
800.66	0.045
803.71	0.044
806.76	0.044
809.81	0.045
812.86	0.042
815.91	0.039
818.95	0.043
821.99	0.040
825.04	0.041
828.08	0.041
831.11	0.042
834.15	0.044
837.19	0.045
840.22	0.041
843.25	0.040
846.28	0.042
849.31	0.041
852.34	0.040
855.36	0.045
858.39	0.042
861.41	0.039
864.43	0.048
867.45	0.046
870.47	0.040
873.49	0.048
876.50	0.048
879.51	0.048
882.53	0.052
885.54	0.045
888.54	0.046
891.55	0.052
894.56	0.050
897.56	0.051
900.56	0.051
903.56	0.050
906.56	0.046
909.56	0.043
912.55	0.051
915.55	0.045
918.54	0.044
921.53	0.044
924.52	0.045
927.50	0.042
930.49	0.047
933.47	0.043
936.46	0.049
939.44	0.048
942.42	0.045
945.39	0.047
948.37	0.043
951.34	0.043
954.32	0.047
957.29	0.046
960.26	0.047
963.22	0.044
966.19	0.039
969.15	0.046
972.12	0.043
975.08	0.044
978.04	0.041
980.99	0.045
983.95	0.042
986.90	0.046
989.86	0.047
992.81	0.046
995.76	0.045
998.70	0.050
1001.65	0.043
1004.59	0.050
1007.54	0.043
1010.48	0.051
1013.42	0.045
1016.35	0.045
1019.29	0.038
1022.22	0.057
1025.15	0.050
1028.08	0.056
1031.01	0.046
1033.94	0.056
1036.87	0.059
1039.79	0.052
1042.71	0.047
1045.63	0.056
1048.55	0.054
1051.47	0.043
1054.38	0.069
1057.29	0.065
1060.21	0.064
1063.12	0.113
1066.02	0.027
1068.93	0.206
1071.83	0.130
1074.74	0.240
1077.64	0.070
1080.54	0.086
1083.44	0.085
1086.33	1.007
1089.22	0.575
1092.12	1.230
1095.01	0.435
1097.90	0.232
1099.13	0.267
>>>>>End Processed Spectral Data<<<<<