Folder: thesis/assets/data/P12/uvvis

Note: assets/README.md
# Preamble notes

## Cross-references

For the sake of contrast and to guide the reader, cross-refs to objects inside
the thesis proper always use long-form (*figure 1*, *equation 2*)
whereas cross-refs to objects in our attached papers use the abbreviated form
(*fig. 4*) in addition to using small-caps and being trailed by the paper
number.
This is configured using `cleveref` macros (see `./assets/preamble/cleveref-settings.Rnw`).

+ https://links.solarchemist.se/shaare/GuXgNw


## Keeping non-text outside the main Rnw files, as much as possible

Stuff like `\includegraphics`, info boxes, etc.

I really need the files that I write in to be primarily text, not R code and
other stuff that distracts from writing.

So, I've decided to put each figure/box etc. into its own file inside `assets/aux/`.
They are included from their place in the parent file using R `child` chunks
(just in case the included file contains any R code).

Side-note for writing in VSCodium:
the LaTeX Workshop extension of VSCodium has a nice feature that allows you
to follow a path inside `\input{...}` just by placing the cursor on it
and pressing `F12`.
To make use of this time-saving feature, I've put a commented-out `input` line
next to each Rnw child chunk.

**Note** If you are working in VSCode Server, this `F12` shortcut only works when
running the browser in "app" mode. In a regular (non-appified) browser window
`F12` (in Chrome, Chromium and Firefox) simply opens the browser's developer view.


## Keeping `\section` commands visible in the VSCodium "Outline"

It is very useful and time-saving to navigate using the Outline functionality
in the VSCodium editor. But the Outline only shows headers that are part of
the currently open file (it does not detect nor follow Rnw children).

But it is also not workable to split the isolated R environments we have created
for each manuscript, and that precludes any way to natively include the section
commands.
This has become an issue now that I've decided to split the Results chapter
into more individual sections (rather than one section == one manuscript).

But I found a work-around by repeating the `\section{...}` commands *inside*
the Rnw chunk, as R comments.
This way, the VSCodium logic picks them up (it ignores commented out LaTeX
code, but luckily it does not check for R's comment character) and it does not
interfere with our R code.

Only downside is that we need to manually maintain correspondence between
those commented out section commands and the actual ones inside each manuscript's
`*-text.Rnw` file.
And one more thing, the R chunk in question will produce a warning in the knitr
output saying
```
In call_block(x) :
  The chunk ... has the 'child' option, and this code chunk must be empty. Its code will be ignored.
```
But I can live with that.



## LaTeX commands to keep in mind and use

| Command         | Example/output   | Defined by...             |
|-----------------|------------------|---------------------------

File: abscoeff-H2O+EtOH.dat
260.3 186.082 242.242 1.02484e-08 2.30727e-22 6.00973e-08 3.19328e-21 5.11506e-159 242.242 -56.1604
266.39 1779.61 1166.67 1.06613e-06 3.79718e-20 2.00605e-07 2.11236e-20 3.56487e-154 1166.67 612.941
272.48 5096.32 4028.64 7.09497e-05 4.90373e-18 6.49174e-07 1.35384e-19 2.09964e-149 4028.64 1067.68
278.57 9595.96 9974.27 0.0030205 4.9693e-16 2.03662e-06 8.40697e-19 1.04509e-144 9974.27 -378.308
284.65 16195.6 17694 0.0818455 3.92404e-14 6.18312e-06 5.04327e-18 4.32057e-140 17694 -1498.44
290.73 23040.7 22529.7 1.42081 2.43344e-12 1.82004e-05 2.93157e-17 1.51034e-135 22531.1 509.625
296.8 22286.2 20599.4 15.7448 1.17779e-10 5.18549e-05 1.64657e-16 4.39001e-131 20615.2 1671.04
302.87 13364 13533.6 111.943 4.4803e-09 0.000143258 8.96231e-16 1.07955e-126 13645.6 -281.534
308.94 6235.72 6388.99 510.645 1.3395e-07 0.000383765 4.72738e-15 2.246e-122 6899.64 -663.916
315 3902.18 2171.71 1492.41 3.13182e-06 0.000995313 2.41004e-14 3.89071e-118 3664.13 238.059
321.06 3385.94 531.012 2802.54 5.75957e-05 0.00250333 1.19079e-13 5.70526e-114 3333.56 52.3804
327.11 3424.39 93.6919 3381.68 0.000829646 0.00609691 5.6877e-13 6.97355e-110 3475.38 -50.9894
333.16 2708.69 11.9043 2625.67 0.00940757 0.0144016 2.63323e-12 7.21934e-106 2637.6 71.0919
339.2 1273.76 1.09382 1313.81 0.0836871 0.0329482 1.17876e-11 6.23662e-102 1315.02 -41.2589
345.25 525.682 0.072109 422.678 0.588273 0.0732095 5.12744e-11 4.6328e-98 423.412 102.27
351.28 242.071 0.00345979 88.0221 3.23815 0.157373 2.1517e-10 2.83247e-94 91.4211 150.649
357.31 102.275 0.000119799 11.8295 14.0534 0.328161 8.75392e-10 1.46834e-90 26.2112 76.0636
363.34 114.561 2.99368e-06 1.02596 48.0879 0.663801 3.45273e-09 6.45406e-87 49.7776 64.7831
369.37 160.512 5.39884e-08 0.0574228 129.735 1.30252 1.32027e-08 2.40536e-83 131.095 29.4175
375.39 347.203 7.07923e-10 0.00208632 275.669 2.4767 4.88392e-08 7.50108e-80 278.148 69.0554
381.4 415.06 6.76027e-12 4.93129e-05 461.893 4.56425 1.74803e-07 1.95894e-76 466.458 -51.3976
387.41 572.945 4.66902e-14 7.54383e-07 611.149 8.16109 6.06675e-07 4.34246e-73 619.31 -46.3648
393.42 652.07 2.33223e-16 7.46919e-09 638.563 14.1582 2.04171e-06 8.17084e-70 652.722 -0.651032
399.42 637.78 8.50705e-19 4.8285e-11 527.153 23.8115 6.6499e-06 1.28927e-66 550.964 86.8161
405.42 388.135 2.24667e-21 2.02316e-13 343.923 38.8589 2.10044e-05 1.72771e-63 382.782 5.35322
411.42 273.211 4.29586e-24 5.49448e-16 177.329 61.5346 6.43394e-05 1.96632e-60 238.863 34.3472
417.41 78.3872 6.01442e-27 9.77798e-19 72.381 94.4875 0.000190783 1.8792e-57 166.869 -88.4815
423.39 127.636 6.17547e-30 1.14272e-21 23.4157 140.709 0.00054773 1.50933e-54 164.125 -36.4893
429.37 170.403 4.60078e-33 8.6808e-25 5.99601 203.367 0.0015253 1.03067e-51 209.364 -38.9611
435.35 227.94 2.48701e-36 4.28661e-28 1.21532 285.267 0.00412006 5.98384e-49 286.486 -58.5468
441.32 312.865 9.88598e-40 1.39508e-31 0.195617 388.171 0.0107777 2.92362e-46 388.377 -75.5119
447.29 432.337 2.85439e-43 2.95556e-35 0.0249421 512.685 0.0273498 1.21513e-43 512.737 -80.4006
453.25 510.031 6.07343e-47 4.13867e-39 0.00252944 656.999 0.0672271 4.25477e-41 657.069 -147.038
459.21 734.764 9.39658e-51 3.77801e-43 0.00020336 817.295 0.160319 1.26802e-38 817.455 -82.6913
465.17 844.218 1.05711e-54 2.24827e-47 1.29616e-05 986.943 0.370915 3.21639e-36 987.314 -143.096
471.12 1021.57 8.7874e-59 8.87504e-52 6.58359e-07 1156.64 0.83145 6.88259e-34 1157.48 -135.907
477.06 1151.92 5.4061e-63 2.32898e-56 2.66799e-08 1315.73 1.80608 1.24344e-31 1317.54 -165.614
483 1340.95 2.42354e-67 3.99565e-61 8.58481e-10 1453.18 3.80692 1.91409e-29 1456.99 -116.038
488.94 1489.16 7.91696e-72 4.48162e-66 2.19333e-11 1558.33 7.78664 2.51052e-27 1566.12 -76.9576
494.87 1614.96 1.91914e-76 3.35358e-71 4.4796e-13 1622.43 15.4374 2.78383e-25 1637.87 -22.9138
500.8 1654.72 3.39361e-81 1.64297e-76 7.27004e-15 1640.22 29.7016 2.63159e-23 1669.92 -15.2018
506.72 1647.75 4.46252e-86 5.38541e-82 9.44644e-17 1610.24 55.4016 2.10542e-21 1665.64 -17.8936
512.64 1631.67 4.28515e-91 1.15737e-87 9.76113e-19 1535.16 100.298 1.43678e-19 1635.45 -3.78538
518.55 1630.45 3.06647e-96 1.66892e-93 8.08794e-21 1421.52 176.068 8.30712e-18 1597.59 32.8574
524.46 1698.71 1.60413e-101 1.58009e-99 5.33349e-23 1278.41 300.015 4.09899e-16 1578.42 120.291
530.37 1874.05 6.13432e-107 9.82235e-106 2.79912e-25 1116.61 496.219 1.72611e-14 1612.83 261.221
536.27 2244.25 1.7528e-112 4.1115e-112 1.18025e-27 947.498 796.043 6.1667e-13 1743.54 500.708
542.16 2624.62 3.74824e-118 1.16135e-118 4.00293e-30 781.208 1238.79 1.87058e-11 2020 604.619
548.05 3324.02 5.87177e-124 2.15995e-125 1.08215e-32 625.686 1871.62 4.84766e-10 2497.31 826.715
553.94 4069.3 6.73841e-130 2.64513e-132 2.33185e-35 486.796 2745.32 1.07329e-08 3232.12 837.175
559.82 4989.58 5.80258e-136 2.19366e-139 4.04947e-38 368.091 3907.3 2.02034e-07 4275.39 714.182
565.7 6091.43 3.66429e-142 1.19957e-146 5.60965e-41 270.4 5399.59 3.25083e-06 5669.99 421.438
571.57 7283.92 1.74001e-148 4.45483e-154 6.27228e-44 193.091 7241.68 4.45192e-05 7434.78 -150.855
577.44 8787.75 6.06562e-155 1.09242e-161 5.59871e-47 133.969 9431.1 0.000521429 9565.07 -777.322
583.3 10636.2 1.59333e-161 1.82441e-169 4.03989e-50 90.3722 11922.5 0.00520343 12012.8 -1376.66
589.16 13165 3.07579e-168 2.01474e-177 2.32893e-53 59.2371 14637.2 0.0444335 14696.5 -1531.44
595.01 16250.3 4.4836e-175 1.51957e-185 1.087e-56 37.7596 17446.9 0.323623 17485 -1234.66
600.86 19754.3 4.8081e-182 7.58922e-194 4.05638e-60 23.3901 20198 2.01802 20223.4 -469.123
606.7 23014.9 3.90168e-189 2.59598e-202 1.22743e-63 14.0927 22706.7 10.7444 22731.5 283.35
612.54 25752.7 2.33164e-196 5.88836e-211 2.97185e-67 8.25223 24795.5 49.003 24852.8 899.933
618.37 27209.7 1.05661e-203 9.17353e-220 5.84343e-71 4.70102 26298.7 191.027 26494.4 715.271
624.2 27952.6 3.5298e-211 9.49024e-229 9.20048e-75 2.60297 27096.5 638.241 27737.3 215.267
630.02 29433.3 8.96062e-219 6.76218e-238 1.17822e-78 1.40241 27121.8 1824.59 28947.8 485.531
635.84 31977.9 1.67867e-226 3.20409e-247 1.20914e-82 0.734475 26374.5 4472.91 30848.2 1129.69
641.66 36201.3 2.32078e-234 1.00956e-256 9.94394e-87 0.373921 24917.9 9402.9 34321.2 1880.07
647.47 42113.4 2.44447e-242 2.19862e-266 6.66409e-91 0.185274 22875.7 16935.5 39811.3 2302.05
653.27 46137.7 1.96471e-250 3.31643e-276 3.64348e-95 0.0893612 20409.7 26154.1 46563.8 -426.149
659.07 49978.9 1.16777e-258 3.33592e-286 1.59877e-99 0.0419049 17694.8 34672.6 52367.4 -2388.44
664.86 52240.7 5.30744e-267 2.33065e-296 5.73202e-104 0.0191321 14912.1 39454.5 54366.7 -2125.97
670.65 50123.4 1.7857e-275 1.08735e-306 1.65064e-108 0.00849349 12213 38560.3 50773.3 -649.95
676.44 45189.5 4.44763e-284 3.38739e-317 3.81784e-113 0.00366635 9720.67 32368 42088.7 3100.84
682.22 34072.1 8.49264e-293 0 7.22867e-118 0.00154123 7522.5 23352.2 30874.7 3197.43
687.99 20237.8 1.24517e-301 0 1.12167e-122 0.000631034 5660.9 14491.5 20152.4 85.3305
693.76 10993.5 1.35428e-310 0 1.40008e-127 0.000251273 4140.79 7731.97 11872.8 -879.228
699.52 5800.56 1.12281e-319 0 1.43437e-132 9.74704e-05 2945.94 3552.2 6498.14 -697.585
705.28 3036.61 0 0 1.18298e-137 3.67748e-05 2037.43 1403.85 3441.28 -404.669
711.04 1621.37 0 0 7.85409e-143 1.34952e-05 1369.81 477.263 1847.07 -225.7
716.79 886.071 0 0 4.28801e-148 4.82553e-06 895.952 139.892 1035.84 -149.774
722.53 569.481 0 0 1.92729e-153 1.68156e-06 570.194 35.381 605.575 -36.0944
728.27 333.616 0 0 6.98385e-159 5.70051e-07 352.829 7.70575 360.535 -26.9185
734 266.951 0 0 2.08653e-164 1.88365e-07 212.473 1.44961 213.922 53.0281
739.73 201.124 0 0 5.02968e-170 6.05566e-08 124.419 0.234953 124.654 76.4701
745.46 210.68 0 0 9.78226e-176 1.89408e-08 70.8465 0.03281 70.8793 139.801
751.17 176.493 0 0 1.60896e-181 5.78811e-09 39.3107 0.00397786 39.3147 137.179
756.89 121.895 0 0 2.0879e-187 1.71752e-09 21.1911 0.000414251 21.1915 100.704
762.6 174.466 0 0 2.24141e-193 4.96978e-10 11.1221 3.73496e-05 11.1221 163.344
768.3 178.082 0 0 1.99279e-199 1.40251e-10 5.6842 2.91777e-06 5.6842 172.398
774 95.9468 0 0 1.43272e-205 3.8519e-11 2.82569 1.96692e-07 2.82569 93.1211
779.69 192.912 0 0 8.54354e-212 1.03196e-11 1.3681 1.15005e-08 1.3681 191.544
785.37 217.708 0 0 4.23036e-218 2.69727e-12 0.645223 5.83683e-10 0.645223 217.063
791.06 155.888 0 0 1.65264e-224 6.84566e-13 0.295633 2.54454e-11 0.295633 155.593
796.73 219.083 0 0 5.50896e-231 1.69943e-13 0.132149 9.69069e-13 0.132149 218.951
802.4 158.98 0 0 1.48829e-237 4.1069e-14 0.0574744 3.18965e-14 0.0574744 158.923
808.07 163.601 0 0 3.25859e-244 9.66163e-15 0.0243211 9.07346e-16 0.0243211 163.576
813.73 177.718 0 0 5.94409e-251 2.21845e-15 0.0100295 2.24564e-17 0.0100295 177.708
819.39 241.965 0 0 8.79405e-258 4.95925e-16 0.00402456 4.80589e-19 0.00402456 241.961
825.04 319.203 0 0 1.08555e-264 1.08225e-16 0.00157409 8.95757e-21 0.00157409 319.201
830.68 237.462 0 0 1.1193e-271 2.30593e-17 0.000600172 1.4552e-22 0.000600172 237.462
836.32 211.71 0 0 9.37414e-279 4.78424e-18 0.000222713 2.04629e-24 0.000222713 211.709
841.95 299.803 0 0 6.56742e-286 9.69324e-19 8.05815e-05 2.51058e-26 8.05815e-05 299.803
847.58 318.374 0 0 3.73997e-293 1.91255e-19 2.83786e-05 2.66756e-28 2.83786e-05 318.374
853.2 240.076 0 0 1.78426e-300 3.68578e-20 9.74647e-06 2.47548e-30 9.74647e-06 240.076
858.82 337.8 0 0 6.92431e-308 6.91791e-21 3.25846e-06 1.99049e-32 3.25846e-06 337.8
864.43 371.298 0 0 2.2545e-315 1.26845e-21 1.06258e-06 1.39929e-34 1.06258e-06 371.298
870.04 231.271 0 0 0 2.26538e-22 3.37336e-07 8.52773e-37 3.37336e-07 231.271
875.64 347.264 0 0 0 3.95316e-23 1.04479e-07 4.5483e-39 1.04479e-07 347.264
881.23 362.099 0 0 0 6.74128e-24 3.1574e-08 2.12465e-41 3.1574e-08 362.099
886.82 251.719 0 0 0 1.11993e-24 9.29094e-09 8.61277e-44 9.29094e-09 251.719
892.41 218.381 0 0 0 1.81256e-25 2.66209e-09 3.02982e-46 2.66209e-09 218.381
897.99 215.119 0 0 0 2.86742e-26 7.44423e-10 9.34679e-49 7.44423e-10 215.119
899.7 256.456 0 0 0 1.62114e-26 5.01096e-10 1.54509e-49 5.01096e-10 256.456

File: abscoeff-H2O.dat
260.3 148.615 446.612 2.2674e-08 5.16976e-22 6.60435e-08 9.41067e-16 1.4944e-204 0 446.612 -297.996
267.33 3062.27 2320.1 4.36062e-06 1.67592e-19 2.66505e-07 5.1976e-15 2.15099e-197 0 2320.1 742.172
274.36 8595.37 7897.54 0.00046131 3.95714e-17 1.03169e-06 2.77735e-14 2.32102e-190 0 7897.54 697.831
281.38 16511.5 17600.4 0.0267016 6.75729e-15 3.82442e-06 1.43252e-13 1.83589e-183 4.81931e-307 17600.4 -1088.93
288.39 26100 25726.5 0.847783 8.35629e-13 1.35778e-05 7.13299e-13 1.06581e-176 7.04216e-294 25727.3 372.648
295.4 25825.5 24699.7 14.857 7.54017e-11 4.62555e-05 3.43693e-12 4.64608e-170 5.33293e-281 24714.5 1110.99
302.41 15418.1 15576 143.708 4.9645e-09 0.000151206 1.60249e-11 1.5208e-163 2.09298e-268 15719.7 -301.617
309.4 6826.35 6471.79 764.22 2.35991e-07 0.000472776 7.1995e-11 3.58576e-157 3.93e-256 7236.01 -409.657
316.4 4397.77 1766.65 2253.28 8.24001e-06 0.00142097 3.13705e-10 6.48972e-151 3.99149e-244 4019.93 377.837
323.39 3868.1 318.015 3672.2 0.000209202 0.00409254 1.32015e-09 8.65227e-145 2.02623e-232 3990.22 -122.122
330.37 3334.84 37.8174 3316.31 0.00386717 0.0112968 5.36629e-09 8.50791e-139 5.15547e-221 3354.15 -19.3042
337.35 1634.73 2.96448 1661.46 0.0523019 0.0299324 2.11141e-08 6.29732e-133 6.83638e-210 1664.5 -29.7684
344.32 435.59 0.153883 462.813 0.515951 0.0760298 8.026e-08 3.44339e-127 4.56073e-199 463.559 -27.9691
351.28 108.078 0.00529899 71.8628 3.71749 0.185165 2.9479e-07 1.39265e-121 1.53499e-188 75.7708 32.3075
358.24 86.0775 0.000120572 6.21114 19.6319 0.432973 1.04823e-06 4.24661e-116 2.70256e-178 26.2762 59.8014
365.2 126.01 1.81278e-06 0.298818 75.9887 0.972049 3.60854e-06 9.76315e-111 2.48909e-168 77.2595 48.7509
372.15 240.668 1.81342e-08 0.00804734 215.305 2.09303 1.20059e-05 1.66358e-105 1.16197e-158 217.406 23.2619
379.09 489.666 1.20916e-10 0.000121619 447.155 4.32313 3.86108e-05 2.10346e-100 2.75704e-149 451.478 38.1873
386.03 623.343 5.34007e-13 1.02655e-06 681.883 8.57528 0.000120236 2.0085e-95 3.43482e-140 690.458 -67.115
392.96 776.853 1.57569e-15 4.87891e-09 763.544 16.3206 0.000361982 1.42544e-90 2.18311e-131 779.865 -3.01163
399.89 743.608 3.08313e-18 1.29724e-11 628.336 29.8333 0.00105534 7.64588e-86 7.299e-123 658.17 85.4376
406.81 419.285 4.0402e-21 1.94867e-14 380.36 52.3365 0.00297515 3.05313e-81 1.2496e-114 432.699 -13.4145
413.72 228.8 3.55202e-24 1.65793e-17 169.598 88.1296 0.00811142 9.08715e-77 1.09852e-106 257.736 -28.9359
420.63 113.971 2.07574e-27 7.91776e-21 55.6738 142.567 0.0214198 2.04745e-72 5.0988e-99 198.262 -84.2905
427.53 159.82 8.1575e-31 2.14882e-24 13.4857 221.426 0.0547125 3.44399e-68 1.21972e-91 234.967 -75.1468
434.43 289.026 2.13343e-34 3.27896e-28 2.40706 330.423 0.135372 4.38898e-64 1.54341e-84 332.965 -43.9394
441.32 355.321 3.7611e-38 2.85286e-32 0.317585 473.506 0.324043 4.18244e-60 1.01027e-77 474.148 -118.827
448.21 532.754 4.41774e-42 1.39793e-36 0.0309035 652.021 0.751429 3.02201e-56 3.50445e-71 652.803 -120.05
455.09 768.028 3.50609e-46 3.91878e-41 0.00222681 862.409 1.68611 1.6354e-52 6.31161e-65 864.097 -96.069
461.96 919.586 1.88343e-50 6.30024e-46 0.000118977 1095.86 3.66145 6.63645e-49 5.91828e-59 1099.52 -179.938
468.83 1157.6 6.75691e-55 5.7236e-51 4.69662e-06 1338.38 7.70396 2.04525e-45 2.95174e-53 1346.08 -188.484
475.69 1462.99 1.64464e-59 2.99204e-56 1.37713e-07 1570.7 15.6901 4.73409e-42 7.69295e-48 1586.39 -123.398
482.55 1689.12 2.67656e-64 8.85303e-62 2.98599e-09 1771.9 30.9648 8.32859e-39 1.0684e-42 1802.86 -113.74
489.4 1920.65 2.96228e-69 1.51232e-67 4.81764e-11 1921.21 59.162 1.10225e-35 7.7821e-38 1980.37 -59.7264
496.24 2086.9 2.23348e-74 1.49521e-73 5.79145e-13 2002.53 109.448 1.09872e-32 2.98113e-33 2111.97 -25.0706
503.08 2253.74 1.1286e-79 8.3951e-80 5.15734e-15 2006.83 196.238 8.33742e-30 6.10777e-29 2203.07 50.6676
509.91 2264.77 3.89422e-85 2.73712e-86 3.42793e-17 1933.8 340.746 4.7727e-27 6.6053e-25 2274.54 -9.77033
516.73 2392.78 9.19151e-91 5.19494e-93 1.70286e-19 1792.06 573.069 2.0635e-24 3.78096e-21 2365.13 27.6507
523.55 2699.2 1.45736e-96 5.61783e-100 6.27727e-22 1597.07 934.272 6.80258e-22 1.16175e-17 2531.34 167.859
530.37 3194.73 1.55225e-102 3.46145e-107 1.71715e-24 1368.75 1476.49 1.70992e-19 1.91615e-14 2845.24 349.496
537.17 3865.03 1.15837e-108 1.27899e-114 3.55123e-27 1128.82 2259.2 3.22838e-17 1.66457e-11 3388.02 477.013
543.98 4946.01 5.69597e-115 2.63112e-122 5.40657e-30 895.151 3353.44 4.68818e-15 7.8576e-09 4248.59 697.423
550.77 6352.82 1.96922e-121 3.26196e-130 6.23927e-33 683.309 4820.71 5.12586e-13 1.96429e-06 5504.02 848.793
557.56 7948.18 4.58937e-128 2.3156e-138 5.3571e-36 501.785 6719.57 4.28345e-11 0.00026503 7221.36 726.821
564.34 9739.13 7.38056e-135 9.68788e-147 3.46025e-39 354.675 9078.17 2.71965e-09 0.0191874 9432.86 306.261
571.12 11747.8 8.01052e-142 2.32462e-155 1.66436e-42 241.198 11893.3 1.32081e-07 0.751104 12135.3 -387.438
577.89 14476.7 6.01336e-149 3.29824e-164 6.03289e-46 157.916 15104.7 4.88141e-06 15.8339 15278.5 -801.81
584.65 18314 3.12761e-156 2.77387e-173 1.65009e-49 99.5563 18598.9 0.000137449 180.245 18878.7 -564.677
591.41 23546.6 1.1004e-163 1.34236e-182 3.3667e-53 60.4 22212.1 0.00296507 1113.46 23385.9 160.669
598.16 29987.9 2.68864e-171 3.86318e-192 5.19229e-57 35.2932 25723.7 0.0488095 3727.7 29486.7 501.238
604.9 35273.7 4.56994e-179 6.62794e-202 6.06087e-61 19.8657 28892 0.613851 6781.72 35694.2 -420.536
611.64 38346.5 5.26663e-187 6.56463e-212 5.28662e-65 10.7632 31479.6 5.92379 6719.6 38215.9 130.603
618.37 37442.6 4.23207e-195 3.8888e-222 3.49618e-69 5.61874 33270.5 43.7431 3631.17 36951 491.578
625.1 35322.4 2.30844e-203 1.33207e-232 1.72923e-73 2.82364 34114.1 248.049 1070.62 35435.6 -113.238
631.81 34632.7 9.06012e-212 2.84121e-243 6.59646e-78 1.36905 33937.5 1075.86 173.325 35188.1 -555.369
638.53 36523.2 2.3485e-220 3.38506e-254 1.85565e-82 0.638401 32757.9 3594.73 15.3029 36368.6 154.568
645.23 41615 4.39537e-229 2.52355e-265 4.03649e-87 0.287311 30686 9208.46 0.745868 39895.5 1719.44
651.93 47357.4 5.60327e-238 1.09315e-276 6.58381e-92 0.124518 27895 18157.1 0.0199424 46052.3 1305.16
658.62 51122.5 5.02085e-247 2.86457e-288 8.19107e-97 0.0520373 24613 27546.1 0.000294479 52159.2 -1036.64
665.31 50916.5 3.06798e-256 4.36881e-300 7.64791e-102 0.0209444 21076.8 32192.2 2.38966e-06 53269 -2352.51
671.99 46607.5 1.32072e-265 4.04374e-312 5.45607e-107 0.00813051 17521.6 28991.5 1.07481e-08 46513.2 94.2978
678.66 36749.6 4.01236e-275 0 2.97791e-112 0.00304466 14142.7 20143.3 2.68661e-11 34286 2463.58
685.33 22123.4 8.33143e-285 0 1.22187e-117 0.00109832 11080.8 10798 3.70372e-14 21878.8 244.682
691.99 12174.1 1.22366e-294 0 3.84218e-123 0.000382286 8430.86 4472.71 2.84772e-17 12903.6 -729.471
698.64 6698.56 1.27339e-304 0 9.27092e-129 0.000128407 6230.16 1433.23 1.22447e-20 7663.39 -964.825
705.28 3981.84 9.40508e-315 0 1.71877e-134 4.16297e-05 4472.06 355.703 2.95218e-24 4827.77 -845.921
711.92 2587.01 0 0 2.40163e-140 1.30056e-05 3116.82 68.2689 3.94654e-28 3185.08 -598.07
718.56 1849.27 0 0 2.52924e-146 3.91538e-06 2109.15 10.1327 2.92529e-32 2119.29 -270.022
725.18 1344.15 0 0 2.09521e-152 1.14018e-06 1387.61 1.17109 1.2405e-36 1388.79 -44.64
731.8 1014.96 0 0 1.31038e-158 3.20024e-07 886.544 0.104832 2.92711e-41 886.649 128.31
738.41 798.02 0 0 6.3263e-165 8.67508e-08 550.46 0.00729905 3.91083e-46 550.467 247.553
745.02 626.144 0 0 2.30783e-171 2.26685e-08 331.941 0.000393924 2.91263e-51 331.941 294.202
751.61 554.272 0 0 6.66177e-178 5.73413e-09 194.728 1.66444e-05 1.25648e-56 194.728 359.545
758.21 429.465 0 0 1.42172e-184 1.39548e-09 110.867 5.43035e-07 2.97187e-62 110.867 318.599
764.79 399.772 0 0 2.40699e-191 3.28868e-10 61.4215 1.39027e-08 4.09314e-68 61.4215 338.351
771.37 309.611 0 0 3.08701e-198 7.47346e-11 33.0571 2.76531e-10 3.15915e-74 33.0571 276.554
777.94 318.74 0 0 3.07436e-205 1.64149e-11 17.301 4.30129e-12 1.39775e-80 17.301 301.439
784.5 202.286 0 0 2.38052e-212 3.48535e-12 8.80637 5.23794e-14 3.55455e-87 8.80637 193.48
791.06 251.667 0 0 1.39871e-219 7.1376e-13 4.35536 4.9632e-16 5.08337e-94 4.35536 247.312
797.61 272.56 0 0 6.40049e-227 1.41333e-13 2.0953 3.68753e-18 4.19311e-101 2.0953 270.465
804.15 249.294 0 0 2.28392e-234 2.70639e-14 0.980666 2.1507e-20 2.00023e-108 0.980666 248.313
810.68 267.88 0 0 6.36317e-242 5.01263e-15 0.446587 9.85806e-23 5.5325e-116 0.446587 267.433
817.21 279.437 0 0 1.34864e-249 8.95745e-16 0.197654 3.524e-25 8.65082e-124 0.197654 279.24
823.73 183.91 0 0 2.23549e-257 1.54855e-16 0.0851316 9.91536e-28 7.87063e-132 0.0851316 183.825
830.25 225.933 0 0 2.82126e-265 2.5832e-17 0.0356393 2.17743e-30 4.05521e-140 0.0356393 225.897
836.75 258.395 0 0 2.87e-273 4.18155e-18 0.0145424 3.8071e-33 1.25784e-148 0.0145424 258.38
843.25 316.81 0 0 2.22658e-281 6.53283e-19 0.00576863 5.20316e-36 2.2172e-157 0.00576863 316.804
849.74 291.111 0 0 1.35663e-289 9.87931e-20 0.00222784 5.61845e-39 2.29393e-166 0.00222784 291.108
856.23 338.553 0 0 6.30907e-298 1.44206e-20 0.00083649 4.7459e-42 1.35106e-175 0.00083649 338.552
862.71 310.353 0 0 2.30812e-306 2.03797e-21 0.000305836 3.17215e-45 4.68681e-185 0.000305836 310.353
869.18 314.545 0 0 6.65098e-315 2.78893e-22 0.000108898 1.67964e-48 9.60093e-195 0.000108898 314.545
875.64 321.152 0 0 0 3.69637e-23 3.77675e-05 7.05333e-52 1.16443e-204 3.77675e-05 321.152
882.1 232.782 0 0 0 4.73029e-24 1.27378e-05 2.32225e-55 8.08141e-215 1.27378e-05 232.782
888.54 226.708 0 0 0 5.88314e-25 4.19243e-06 6.15221e-59 3.4595e-225 4.19243e-06 226.708
894.98 241.044 0 0 0 7.06641e-26 1.34212e-06 1.2798e-62 8.50382e-236 1.34212e-06 241.044
899.7 189.041 0 0 0 1.46219e-26 5.7225e-07 2.1975e-65 1.0018e-243 5.7225e-07 189.041