Folder: thesis/assets/data/P12/uvvis (part 3)

File: reference.txt
SpectraSuite Data File
++++++++++++++++++++++++++++++++++++
Date: Tue Mar 29 10:18:15 CEST 2016
User: IPCE
Dark Spectrum Present: Yes
Reference Spectrum Present: Yes
Number of Sampled Component Spectra: 1
Spectrometers: HR+C0708
Integration Time (usec): 1000 (HR+C0708)
Spectra Averaged: 10 (HR+C0708)
Boxcar Smoothing: 0 (HR+C0708)
Correct for Electrical Dark: No (HR+C0708)
Strobe/Lamp Enabled: No (HR+C0708)
Correct for Detector Non-linearity: No (HR+C0708)
Correct for Stray Light: No (HR+C0708)
Number of Pixels in Processed Spectrum: 2048
>>>>>Begin Processed Spectral Data<<<<<
188.76	687.70
192.06	688.90
195.37	696.30
198.67	702.60
201.97	724.90
205.28	729.50
208.58	728.20
211.88	735.80
215.18	748.80
218.47	772.60
221.77	823.10
225.06	950.20
228.36	1190.60
231.65	1687.40
234.94	2395.90
238.23	3331.60
241.52	4449.70
244.81	5322.40
248.10	5782.60
251.39	5840.50
254.67	6307.10
257.95	8256.00
261.24	9033.50
264.52	9483.10
267.80	9634.70
271.08	8877.30
274.36	8351.40
277.63	8204.10
280.91	8037.30
284.18	8970.40
287.46	9223.50
290.73	8864.50
294.00	8754.50
297.27	8634.80
300.54	8351.00
303.81	7730.70
307.07	7700.20
310.34	7764.80
313.60	8045.10
316.86	8698.70
320.13	8469.50
323.39	7731.20
326.64	6764.70
329.90	7046.50
333.16	7730.20
336.42	7056.80
339.67	7475.10
342.92	7326.10
346.17	7248.90
349.43	5487.30
352.67	3975.20
355.92	4100.30
359.17	5706.70
362.42	6701.40
365.66	6769.60
368.90	6369.50
372.15	6405.30
375.39	7066.30
378.63	7417.20
381.87	7358.30
385.10	7153.00
388.34	7239.50
391.57	7214.20
394.81	7348.10
398.04	7848.20
401.27	7335.30
404.50	7176.60
407.73	6616.90
410.96	6606.00
414.18	6942.60
417.41	6844.40
420.63	7125.30
423.85	7277.50
427.07	6795.90
430.29	8255.00
433.51	6760.40
436.73	6164.90
439.94	5315.10
443.16	5563.50
446.37	6138.00
449.58	6392.10
452.79	5993.20
456.00	6051.30
459.21	6716.70
462.42	8917.30
465.62	10787.40
468.83	9765.80
472.03	9261.10
475.23	8904.20
478.43	8758.60
481.63	8999.20
484.83	9843.70
488.03	10419.10
491.22	10396.80
494.42	10329.60
497.61	10213.20
500.80	10223.60
503.99	10649.20
507.18	11193.50
510.36	10743.90
513.55	9552.00
516.73	9168.70
519.92	9453.80
523.10	9900.20
526.28	10109.50
529.46	9970.40
532.64	9745.70
535.81	9860.80
538.99	9983.40
542.16	10130.20
545.34	10440.50
548.51	10801.90
551.68	11183.00
554.84	11436.30
558.01	11625.30
561.18	11842.40
564.34	11963.20
567.50	12289.10
570.67	12640.20
573.83	13105.10
576.98	13437.50
580.14	13674.30
583.30	13920.00
586.45	13943.90
589.61	13896.90
592.76	13688.40
595.91	13560.20
599.06	13569.70
602.21	13499.40
605.35	13547.60
608.50	13660.00
611.64	13716.70
614.78	13846.70
617.92	13873.70
621.06	13981.10
624.20	14052.80
627.34	14000.50
630.47	14003.30
633.61	13935.10
636.74	13843.60
639.87	13807.40
643.00	13786.20
646.13	13588.30
649.25	13458.00
652.38	13340.80
655.50	13245.20
658.62	12972.50
661.74	12734.00
664.86	12585.00
667.98	12622.00
671.10	12376.50
674.21	12127.30
677.33	11945.20
680.44	11808.70
683.55	11607.20
686.66	11485.40
689.77	11273.80
692.87	11028.20
695.98	10884.80
699.08	10568.60
702.18	10320.50
705.28	9921.40
708.38	9631.20
711.48	9277.00
714.58	8947.60
717.67	8608.70
720.76	8258.80
723.86	7937.60
726.95	7703.40
730.03	7572.70
733.12	7429.00
736.21	7406.20
739.29	7328.90
742.37	7244.70
745.46	7154.40
748.54	7078.80
751.61	6939.00
754.69	6778.90
757.77	6657.40
760.84	6493.60
763.91	6314.20
766.98	6131.30
770.05	5940.10
773.12	5687.30
776.19	5491.90
779.25	5246.30
782.31	5079.50
785.37	4838.20
788.43	4656.90
791.49	4434.00
794.55	4306.90
797.61	4165.80
800.66	4004.20
803.71	3827.50
806.76	3732.70
809.81	3597.50
812.86	3500.40
815.91	3381.50
818.95	3294.00
821.99	3160.10
825.04	3088.70
828.08	2989.70
831.11	2920.40
834.15	2837.00
837.19	2771.80
840.22	2710.60
843.25	2622.50
846.28	2558.30
849.31	2496.20
852.34	2429.50
855.36	2365.30
858.39	2323.10
861.41	2272.70
864.43	2223.70
867.45	2189.20
870.47	2130.00
873.49	2083.30
876.50	2069.00
879.51	2066.40
882.53	2107.40
885.54	2193.80
888.54	2287.80
891.55	2394.50
894.56	2525.60
897.56	2653.60
900.56	2775.90
903.56	2928.90
906.56	3035.60
909.56	3150.40
912.55	3252.70
915.55	3316.50
918.54	3402.40
921.53	3442.20
924.52	3444.70
927.50	3391.00
930.49	3342.60
933.47	3162.80
936.46	2713.50
939.44	2077.50
942.42	1731.50
945.39	1646.00
948.37	1746.30
951.34	1935.50
954.32	2099.70
957.29	2223.50
960.26	2281.00
963.22	2306.60
966.19	2349.00
969.15	2303.70
972.12	2277.20
975.08	2181.20
978.04	2157.00
980.99	2108.60
983.95	2100.50
986.90	2112.10
989.86	2114.10
992.81	2081.10
995.76	2009.20
998.70	1897.20
1001.65	1808.90
1004.59	1697.50
1007.54	1615.00
1010.48	1528.80
1013.42	1456.70
1016.35	1385.20
1019.29	1327.40
1022.22	1268.70
1025.15	1214.30
1028.08	1164.90
1031.01	1133.00
1033.94	1094.50
1036.87	1048.50
1039.79	1014.70
1042.71	981.30
1045.63	960.60
1048.55	920.40
1051.47	878.00
1054.38	835.70
1057.29	814.60
1060.21	777.20
1063.12	762.70
1066.02	748.10
1068.93	732.30
1071.83	724.70
1074.74	710.10
1077.64	710.50
1080.54	700.00
1083.44	696.50
1086.33	692.60
1089.22	690.50
1092.12	690.70
1095.01	698.80
1097.90	695.60
1099.13	686.90
>>>>>End Processed Spectral Data<<<<<