Folder: thesis/assets/data/P03/xps

Note: assets/README.md
# Preamble notes

## Cross-references

For the sake of contrast and to guide the reader, cross-refs to objects inside
the thesis proper always use long-form (*figure 1*, *equation 2*)
whereas cross-refs to objects in our attached papers use the abbreviated form
(*fig. 4*) in addition to using small-caps and being trailed by the paper
number.
This is configured using `cleveref` macros (see `./assets/preamble/cleveref-settings.Rnw`).

+ https://links.solarchemist.se/shaare/GuXgNw


## Keeping non-text outside the main Rnw files, as much as possible

Stuff like `\includegraphics`, info boxes, etc.

I really need the files that I write in to be primarily text, not R code and
other stuff that distracts from writing.

So, I've decided to put each figure/box etc. into its own file inside `assets/aux/`.
They are included from their place in the parent file using R `child` chunks
(just in case the included file contains any R code).

Side-note for writing in VSCodium:
the LaTeX Workshop extension of VSCodium has a nice feature that allows you
to follow a path inside `\input{...}` just by placing the cursor on it
and pressing `F12`.
To make use of this time-saving feature, I've put a commented-out `input` line
next to each Rnw child chunk.

**Note** If you are working in VSCode Server, this `F12` shortcut only works when
running the browser in "app" mode. In a regular (non-appified) browser window
`F12` (in Chrome, Chromium and Firefox) simply opens the browser's developer view.


## Keeping `\section` commands visible in the VSCodium "Outline"

It is very useful and time-saving to navigate using the Outline functionality
in the VSCodium editor. But the Outline only shows headers that are part of
the currently open file (it does not detect nor follow Rnw children).

But it is also not workable to split the isolated R environments we have created
for each manuscript, and that precludes any way to natively include the section
commands.
This has become an issue now that I've decided to split the Results chapter
into more individual sections (rather than one section == one manuscript).

But I found a work-around by repeating the `\section{...}` commands *inside*
the Rnw chunk, as R comments.
This way, the VSCodium logic picks them up (it ignores commented out LaTeX
code, but luckily it does not check for R's comment character) and it does not
interfere with our R code.

Only downside is that we need to manually maintain correspondence between
those commented out section commands and the actual ones inside each manuscript's
`*-text.Rnw` file.
And one more thing, the R chunk in question will produce a warning in the knitr
output saying
```
In call_block(x) :
  The chunk ... has the 'child' option, and this code chunk must be empty. Its code will be ignored.
```
But I can live with that.



## LaTeX commands to keep in mind and use

| Command         | Example/output   | Defined by...             |
|-----------------|------------------|---------------------------

File: 7B0116_2.asc
Full

C1s
1
295.0000
-0.1000
250
775.0001
793.0001
820.0001
802.0001
845.0001
772.0001
839.0001
836.0001
875.0001
851.0001
796.0001
806.0001
858.0001
785.0001
789.0001
830.0001
862.0001
778.0001
824.0001
785.0001
810.0001
782.0001
803.0001
837.0001
811.0001
852.0001
800.0001
852.0001
836.0001
762.0001
761.0001
815.0001
748.0001
799.0001
787.0001
821.0001
838.0001
852.0001
786.0001
815.0001
769.0001
788.0001
759.0001
756.0001
793.0001
769.0001
774.0001
784.0001
826.0001
770.0001
784.0001
824.0001
758.0001
807.0001
806.0001
791.0001
812.0001
781.0001
819.0001
828.0001
860.0001
836.0001
818.0001
819.0001
761.0001
788.0001
827.0001
823.0001
798.0001
761.0001
810.0001
771.0001
806.0001
805.0001
746.0001
836.0001
808.0001
856.0001
880.0001
762.0001
798.0001
832.0001
904.0001
827.0001
871.0001
795.0001
810.0001
820.0001
838.0001
872.0001
811.0001
846.0001
801.0001
835.0001
786.0001
833.0001
767.0001
843.0001
741.0001
795.0001
796.0001
831.0001
806.0001
759.0001
872.0001
808.0001
726.0001
831.0001
772.0001
813.0001
795.0001
778.0001
809.0001
791.0001
836.0001
759.0001
780.0001
797.0001
842.0001
855.0001
885.0001
908.0001
890.0001
940.0001
910.0001
973.0001
1039
988.0001
965.0001
991.0001
1038
1003
1022
1034
1065
955.0001
1011
954.0001
976.0001
957.0001
994.0001
1011
1003
1026
1005
1070
1105
1162
1156
1224
1242
1356
1315
1364
1439
1520
1651
1725
1886
1996
2152
2329
2517
2688
2817
2887
2773
2688
2513
2332
2180
1938
1716
1443
1269
1214
1072
888.0001
917.0001
896.0001
873.0001
805.0001
756.0001
775.0001
794.0001
812.0001
778.0001
767.0001
764.0001
732.0001
806.0001
757.0001
783.0001
695.0001
737.0001
744.0001
714.0001
768.0001
763.0001
761.0001
777.0001
760.0001
747.0001
746.0001
771.0001
740.0001
767.0001
765.0001
754.0001
749.0001
735.0001
767.0001
783.0001
783.0001
789.0001
744.0001
695.0001
739.0001
770.0001
755.0001
715.0001
740.0001
709.0001
743.0001
748.0001
781.0001
756.0001
757.0001
712.0001
704.0001
736.0001
729.0001
709.0001
769.0001
747.0001
755.0001
732.0001
730.0001
745.0001
729.0001
743.0001
756.0001
785.0001
697.0001
752.0001
758.0001
730.0001
749.0001
735.0001
796.0001

Full

O1s
1
535.0000
-0.1000
200
2866
2894
2876
2902
2864
2776
2836
2682
2822
2736
2728
2688
2742
2760
2664
2742
2638
2692
2654
2716
2580
2736
2652
2814
2734
2784
2628
2560
2798
2692
2804
2740
2662
2678
2626
2660
2658
2658
2822
2802
2818
2578
2744
2750
2792
2708
2770
2768
2694
2598
2620
2678
2592
2774
2780
2830
2766
2698
2578
2584
2758
2554
2714
2542
2564
2760
2706
2674
2674
2668
2670
2664
2840
2606
2884
2946
2944
2926
3070
2992
3200
3302
3440
3562
3554
3612
3780
3846
4074
4110
4212
4516
4774
5044
5212
5522
5676
5920
6296
6416
6596
6976
7058
7500
7652
8028
8334
9040
9372
10406
11082
12280
12694
13516
14202
13566
13486
12802
11788
10534
8992
7708
6694
5858
4630
4166
3656
3172
2888
2730
2562
2462
2574
2412
2244
2214
2200
2220
2198
2238
2260
2210
2206
2234
2230
2172
2146
2170
2128
2120
2180
2184
2290
2122
2118
2062
2242
2142
2020
2134
2100
2180
2086
2290
2156
2096
2298
2250
2198
2066
2144
2086
2186
2176
2144
2208
2184
2048
2238
2194
2126
2244
2202
2270
2210
2214
2244
2206
2098
2166
2204
2156
2120
2112
2216
2290
2124
2190
2222
2200

Full

Fe2p
1
-0.1000
5693.67
5629
5622.67
5698.67
5678
5634.33
5634.33
5541
5577.33
5559.67
5561
5600.33
5579.33
5594.33
5543.67
5541.33
5559
5562.33
5552.33
5620.33
5726
5562.67
5696.67
5646
5604
5626.33
5651
5652.33
5749
5714
5752
5723
5692.67
5781.33
5751.33
5766.67
5789.67
5820.67
5795
5864
5913.33
5869.33
5836
5787
5914.33
5877
5825.33
5817.33
5784
5773.67
5716
5706.67
5746.33
5708.67
5652.67
5621.33
5711.33
5705.33
5631.33
5688.67
5746.33
5615.33
5706
5784.33
5727.33
5803.67
5840
5696
5916
5900.33
5993.33
5999.67
6121.67
6069.67
6128
6120.67
6354.67
6382.67
6375
6322.67
6428.33
6528.33
6527.33
6605
6602.33
6647.67
6507
6487.33
6347.67
6364.67
6222.67
6237.33
5997
5813.33
5724.67
5532.67
5412.67
5357
5410.67
5436.33
5417.67
5356.67
5383
5404
5348.33
5480.33
5545.33
5514.67
5501.67
5619
5653.33
5627
5685.33
5726
5692.67
5769.67
5802.33
5746
5768.33
5850
5891.67
5969.67
6034.33
6132
6176
6287.33
6332.33
6394
6334.67
6317.67
6301.33
6230.67
6202.33
6114
6148.67
6048
6024.67
5986.33
6050.33
6101.67
6057.33
6136
6157.33
6192.33
6263.67
6338.67
6563.33
6535
6637
6826.33
6969.67
7107.33
7078.67
7004.67
6983.33
6854
6678.33
6410.33
6094.33
5662.33
5159.67
4631
4139.33
3807.67
3562.67
3418.33
3437.67
3282.33
3400
3351
3301.67
3319.67
3265
3351.67
3246.67
3265.67
3231.67
3214.67
3232
3245.33
3258
3244
3189
3172.67
3228.33
3153.67
3276.33
3255.33
3222.33
3297.33
3196.67
3153.67
3256.33
3194
3271.67
3285
3215
3120
3248.67
3223
3185.67

Full

Zn2p3
1
-0.1000
6961
6982
6870
6906
6932
6906
6897
7001
6917
7094
7198
7170
7094
7170
7107
7294
7212
7188
7182
7141
6932
7030
7031
6973
6910
6957
6862
6930
6787
6826
6740
6670
6953
6718
6744
6701
6677
6748
6833
6857
6672
6648
6693
6799
6777
6815
6736
6895
6867
6857
6762
6901
6929
7029
7184
7267
7600
7738
7910
8004
8133
7967
7850
7731
7280
7159
6935
6896
6951
6799
6781
6842
6498
6619
6802
6763
6714
6586
6710
6611
6655
6678
6678
6720
6743
6804
6679
6676
6693
6712
6794
6602
6790
6695
6675
6726
6705
6762
6847
6683
6680
6748
6664
6571
6643
6607
6775
6679
6761
6720
6567
6726
6838
6735
6795
6837
6821
6818
6753
6849
6601
6833
6821
6649
6635
6583
6647
6717
6623
6673
6762
6655
6934
6585
6641
6841
6804
6656
6728
6751
6703
6792
6725
6620
6634
6628
6848
6735
6608
6638
6752
6590
6778
6782
6619
6581
6664
6548
6791
6798
6746
6893
6775
6728
6870
6814
6983
7195
7334
7592
8007
8247
8894
9216
9566
9747
9730
9280
8622
8134
7682
7297
7019
6974
7026
6886
6854
6743
6873
6827
6788
6772
6691
6692
6793
6633
6750
6889
6824
6621
6704
6686
6754
6737
6699
6928
6779
6630
6751
6819
6764
6662
6606
6782
6743
6784
6782
7005
6689
6747
6732
6826
6900
6781
6740
6586

Full

Ag3d
1
375.0000
-0.1000
200
706.0000
674.0000
794.0000
708.0000
750.0000
684.0000
730.0000
766.0000
730.0000
752.0000
784.0000
686.0000
728.0000
702.0000
744.0000
722.0000
750.0000
710.0000
728.0000
704.0000
690.0000
686.0000
748.0000
704.0000
726.0000
688.0000
746.0000
726.0000
790.0000
690.0000
714.0000
768.0000
708.0000
750.0000
686.0000
662.0000
770.0000
756.0000
754.0000
802.0000
736.0000
734.0000
766.0000
770.0000
688.0000
720.0000
758.0000
688.0000
690.0000
830.0000
772.0000
694.0000
722.0000
708.0000
728.0000
826.0000
726.0000
774.0000
796.0000
816.0000
778.0000
912.0000
870.0000
978.0000
1012
1012
1122
1132
1262
1340
1266
1320
1344
1228
1148
1082
1080
1004
946.0000
962.0000
884.0000
796.0000
818.0000
796.0000
820.0000
752.0000
722.0000
734.0000
710.0000
820.0000
770.0000
690.0000
716.0000
700.0000
696.0000
748.0000
650.0000
642.0000
642.0000
740.0000
666.0000
620.0000
754.0000
656.0000
718.0000
724.0000
748.0000
736.0000
654.0000
644.0000
722.0000
714.0000
718.0000
746.0000
750.0000
670.0000
762.0000
758.0000
732.0000
846.0000
840.0000
920.0000
1054
954.0000
1128
1228
1308
1496
1410
1518
1448
1508
1524
1418
1384
1266
1244
1204
1088
994.0000
860.0000
888.0000
858.0000
820.0000
766.0000
730.0000
726.0000
810.0000
648.0000
702.0000
734.0000
786.0000
648.0000
654.0000
700.0000
644.0000
664.0000
674.0000
648.0000
688.0000
704.0000
636.0000
704.0000
662.0000
650.0000
710.0000
708.0000
688.0000
668.0000
690.0000
614.0000
670.0000
696.0000
730.0000
696.0000
692.0000
650.0000
714.0000
608.0000
746.0000
720.0000
768.0000
760.0000
716.0000
[...]
1856
2038
2086
1826
2038
2100
2250
2326
2364
2538
2716
3170
3496
4166
4722
5260
6066
6606
7532
8148
8438
8862
8910
8876
8484
7678
7032
5972
5022
4628
3696
3096
2684
2492
2228
1924
1774
1530
1654
1472
1332
1388
1240
1282
1262
1230
1230
1190
1150
1148
1110
1094
1130
1146
1188
1154
980.0000
1084
1034
1076
1004
1016
1024
964.0000
1074
944.0000
924.0000
934.0000
1008
896.0000
1054
944.0000
1030
930.0000
994.0000
986.0000
990.0000
938.0000
982.0000
1038
1052
1098
1076
1078
1062
1166
1308
1180
1310
1472
1560
1806
2080
2224
2760
3180
3724
4404
4782
6082
7080
7946
9468
10208
10874

Full

Si2p
1
105.0000
-0.1000
150
764.0000
834.0000
864.0000
874.0000
884.0000
892.0000
880.0000
844.0000
868.0000
824.0000
880.0000
858.0000
900.0000
922.0000
818.0000
900.0000
938.0000
870.0000
808.0000
878.0000
828.0000
862.0000
890.0000
814.0000
884.0000
938.0000
792.0000
808.0000
852.0000
898.0000
886.0000
870.0000
824.0000
886.0000
838.0000
872.0000
870.0000
896.0000
864.0000
908.0000
870.0000
854.0000
802.0000
866.0000
842.0000
814.0000
844.0000
860.0000
910.0000
832.0000
918.0000
830.0000
816.0000
848.0000
912.0000
890.0000
866.0000
866.0000
888.0000
884.0000
858.0000
868.0000
858.0000
864.0000
892.0000
868.0000
914.0000
834.0000
890.0000
934.0000
908.0000
918.0000
890.0000
926.0000
928.0000
962.0000
862.0000
936.0000
864.0000
870.0000
922.0000
952.0000
920.0000
854.0000
926.0000
880.0000
982.0000
876.0000
988.0000
974.0000
918.0000
958.0000
950.0000
856.0000
1002
1018
1034
910.0000
998.0000
952.0000
1016
956.0000
1014
976.0000
980.0000
936.0000
904.0000
922.0000
976.0000
1016
990.0000
952.0000
976.0000
992.0000
934.0000
964.0000
996.0000
1024
958.0000
974.0000
828.0000
1040
918.0000
892.0000
1034
904.0000
966.0000
906.0000
866.0000
896.0000
986.0000
872.0000
1012
912.0000
902.0000
932.0000
944.0000
1000
928.0000
936.0000
850.0000
924.0000
874.0000
896.0000
960.0000
1064
904.0000
902.0000
874.0000
886.0000

Full

Fe3p
1
60.0000
-0.1000
200
565.0000
605.0000
622.0000
615.0000
594.0000
607.0000
596.0000
623.0000
651.0000
615.0000
680.0000
628.0000
594.0000
625.0000
639.0000
684.0000
642.0000
653.0000
688.0000
657.0000
665.0000
621.0000
645.0000
625.0000
671.0000
644.0000
667.0000
692.0000
662.0000
638.0000
653.0000
636.0000
688.0000
665.0000
605.0000
684.0000
647.0000
621.0000
658.0000
657.0000
638.0000
661.0000
611.0000
596.0000
639.0000
621.0000
619.0000
599.0000
565.0000
611.0000
659.0000
628.0000
632.0000
624.0000
616.0000
606.0000
668.0000
603.0000
591.0000
637.0000
631.0000
673.0000
673.0000
630.0000
599.0000
648.0000
707.0000
691.0000
672.0000
642.0000
651.0000
688.0000
679.0000
705.0000
706.0000
654.0000
718.0000
732.0000
721.0000
710.0000
776.0000
746.0000
760.0000
779.0000
893.0000
871.0000
820.0000
863.0000
871.0000
852.0000
935.0000
929.0000
998.0000
1010
1033
1078
1085
1186
1196
1173
1278
1267
1308
1339
1315
1326
1280
1367
1308
1258
1308
1237
1187
1124
1043
937.0000
932.0000
820.0000
779.0000
690.0000
691.0000
534.0000
587.0000
482.0000
493.0000
499.0000
432.0000
433.0000
406.0000
387.0000
390.0000
371.0000
450.0000
407.0000
373.0000
387.0000
391.0000
354.0000
370.0000
349.0000
404.0000
354.0000
402.0000
382.0000
358.0000
378.0000
362.0000
401.0000
362.0000
363.0000
386.0000
358.0000
386.0000
385.0000
335.0000
356.0000
379.0000
375.0000
351.0000
390.0000
343.0000
354.0000
353.0000
354.0000
362.0000
403.0000
393.0000
327.0000
345.0000
396.0000
376.0000
363.0000
360.0000
385.0000
348.0000
373.0000
381.0000
362.0000
396.0000
389.0000
403.0000
380.0000
394.0000
400.0000
367.0000
416.0000
380.0000
382.0000
395.0000
393.0000
363.0000
387.0000
353.0000
373.0000
378.0000
385.0000
386.0000
388.0000
396.0000
402.0000

File: 7B0301_4.asc
Full

C1s
1
290.0000
-0.1000
150
1303
1281
1365
1298
1288
1284
1287
1301
1232
1219
1262
1214
1224
1255
1275
1265
1191
1247
1257
1262
1206
1220
1278
1229
1240
1231
1283
1216
1178
1256
1236
1278
1125
1271
1157
1150
1131
1186
1171
1164
1147
1210
1151
1166
1205
1230
1154
1185
1163
1111
1103
1145
1162
1173
1142
1079
1170
1197
1213
1131
1212
1244
1238
1319
1256
1378
1460
1490
1550
1627
1642
1688
1744
1751
1891
1880
1826
1803
1810
1774
1754
1669
1754
1648
1672
1689
1621
1636
1598
1678
1685
1741
1766
1927
1887
2014
2096
2188
2292
2379
2606
2847
3176
3739
4151
4821
5642
6359
7266
8096
8823
9163
9646
9582
8958
8362
7771
6774
5566
4510
3787
3043
2502
2070
1790
1535
1369
1301
1267
1281
1138
1134
1225
1158
1081
1106
1101
1068
1080
1033
1015
1075
1033
1082
1077
1085
1077
1053
1115
1092

Full

O1s
1
535.0000
-0.1000
150
2646
2686
2678
2658
2656
2673
2653
2701
2649
2680
2616
2684
2619
2627
2613
2605
2536
2584
2593
2594
2502
2539
2650
2531
2517
2617
2467
2513
2523
2547
2508
2450
2467
2470
2454
2488
2473
2527
2536
2481
2488
2478
2468
2536
2498
2484
2555
2484
2445
2468
2480
2582
2597
2594
2540
2581
2565
2554
2522
2546
2504
2577
2453
2534
2573
2541
2685
2703
2847
2887
2986
2989
3107
3213
3266
3396
3400
3774
3775
4019
4134
4338
4688
4887
5131
5383
5853
6009
6372
6599
6923
6958
7020
7239
7122
6936
6997
6578
6444
6442
6163
6014
6030
6227
6315
6679
6965
7279
7811
8189
8523
8600
8709
8282
7662
7269
6750
5837
5219
4603
4119
3520
3098
2951
2694
2533
2395
2405
2282
2334
2203
2170
2269
2159
2180
2221
2117
2208
2128
2162
2126
2128
2157
2176
2101
2269
2127
2177
2110
2137

Full

Fe2p
1
-0.1000
6134
6036.33
5954.33
5941.33
5990.33
6076
6082.33
5878.67
5955.33
6016.67
5945.67
5948
6016
5969.67
5923.33
5957.67
6002.67
5984
5959
5877
5998.33
5960
6046.67
5864
6004.33
6004.67
5969.67
6021.67
5956.33
5962.33
5970.33
5921.33
6005.33
5992.33
6036
5986.67
6008.33
6014
6016.67
6084.67
6057.33
6011
5982
5894.33
5955.67
5997
6027.33
6049
5878
5847.33
5967
5920.67
5879.33
5777.33
5823.33
5833.33
5830
5845.67
5736.67
5880.33
5939.67
5909.67
5863.33
5811
5827
5911.33
5967.33
5872.67
5925
5971.33
6034
6017.33
5963.33
6153.67
6170.33
6282.33
6179.67
6203.67
6320.33
6339.33
6341.33
6344
6285.67
6308.33
6226.67
6248.33
6197.33
6168
6060.33
6012.33
5986.67
5922.33
5751.33
5738.67
5693.67
5566.33
5542.67
5579.33
5490.67
5519.67
5532.33
5562.33
5541
5493.67
5596
5571
5557.67
5636.67
5575.67
5632.33
5578.33
5644.67
5516
5523.33
5527.67
5573
5509.67
5426.33
5467
5445
5371.67
5298
5363
5388.67
5358.33
5320.33
5282.67
5273.33
5281.67
5340.67
5372.67
5420.67
5501.67
5507.67
5508.67
5579
5597.67
5569
5790.33
5772.33
5755.33
5856
6026.67
6060.67
6102.33
6258.33
6289.33
6447.33
6506.33
6480.33
6466
6520.67
6503.67
6477.33
6300.67
6095
5908
5663.33
5393
5058
4795.33
4618.33
4472.67
4463
4388.67
4446
4370
4277
4284.67
4286.33
4225.33
4193
4157
4217.33
4246
4173.67
4228
4277.67
4181.33
4207
4269
4172
4175.33
4201.67
4149.67
4197.67
4230.33
4186.33
4203.33
4217.33
4299.67
4217.67
4133.67
4204.33
4234.33
4261.67
4170
4154.33
4197
4242.67
4187.33

Full

Zn2p3
1
-0.1000
8552
8468
8513
8537
8546
8421
8503
8406
8548
8479
8401
8598
8567
8400
8436
8392
8516
8451
8381
8347
8547
8563
8500
8594
8314
8430
8462
8410
8408
8384
8531
8603
8585
8412
8404
8388
8413
8439
8520
8525
8522
8627
8555
8603
8574
8798
8729
8791
8879
9004
9252
9410
9817
9926
10315
10511
10539
10569
10542
10252
10065
9515
9317
9132
8956
9030
8657
8767
8514
8659
8523
8781
8603
8474
8601
8502
8692
8493
8654
8554
8434
8428
8506
8524
8468
8349
8603
8259
8410
8553
8558
8369
8457
8387
8337
8486
8346
8458
8292
8433
8355
8456
8389
8326
8267
8434
8206
8389
8409
8255
8399
8238
8275
8326
8497
8436
8200
8246
8264
8354
8228
8194
8252
8194
8206
8095
8232
8337
8273
8245
8263
8219
8026
8206
8221
8004
8080
8310
8014
8125
8156
8123
8005
8200
8227
8260
8329
8188
7998
8207
8200
8067
8268
8118
8253
8189
8296
8385
8259
8131
8372
8530
8573
8631
9020
9210
9767
10412
10888
11564
12064
12550
12426
12227
11938
11555
10899
10099
9555
9104
8699
8558
8460
8282
8337
8256
8228
8275
8155
8189
8298
8223
8297
8272
8205
8168
8077
8229
8217
8195
8263
8204
8102
8134
8097
8216
8329
8075
8084
8094
8253
8032
8234
8039
8157
8182
8036
8026
7961
8307
8115
8081
7937
7940
8090
8239

Full

Ag3d
1
375.0000
-0.1000
200
1524
1472
1530
1400
1518
1478
1472
1424
1478
1494
1520
1496
1448
1550
1514
1534
1526
1502
1418
1648
1418
1460
1482
1496
1410
1428
1504
1442
1386
1462
1510
1388
1444
1456
1354
1472
1446
1392
1508
1382
1398
1382
1514
1468
1472
1462
1498
1376
1444
1360
1356
1472
1450
1448
1506
1634
1648
1554
1718
2046
2140
2628
2886
3408
4074
4944
5820
6310
6700
6898
6858
6380
5460
4844
3946
3348
2858
2382
2146
1832
1654
1806
1460
1546
1432
1412
1436
1376
1438
1414
1368
1396
1330
1392
1380
1194
1360
1294
1278
1406
1368
1396
1318
1324
1354
1254
1182
1314
1300
1368
1318
1308
1370
1356
1516
1540
1624
1742
1890
2018
2386
2864
3618
4328
5290
6262
7326
8084
8886
9186
9234
8112
7496
6366
5186
4154
3524
2914
2414
2032
1832
1708
1644
1488
1384
1370
1390
1266
1172
1218
1316
1248
1240
1208
1152
1196
1162
1240
1224
1154
1162
1204
1132
1134
1188
1096
1090
1100
1180
1184
1112
1162
1098
1088
1144
1050
1140
1152
1034
1134
1148
1152
1066
1100
1134
1140
1156
1126
1088
1108
1232
1068
1166
1058
1162
1136
1032
1128
1052
1132

Full

Sn3d5
1
-0.1000
2033
2019
1965
2035
2051
2063
1966
1978
1957
2022
2034
2040
1945
2019
2007
2054
2056
2056
2026
1962
1928
1987
2047
1986
2001
1974
1933
1997
2007
1957
1994
2039
1936
2024
1958
1953
1960
2015
1962
1962
1909
1919
1985
1987
1968
2003
1986
1938
1977
2001
1965
1919
2046
2005
1920
1973
1945
2029
1932
2031
2049
2000
2017
2001
1989
2035
1956
2050
2043
2042
1988
2025
1985
2005
2029
2151
2136
2106
2168
2299
2313
2354
2428
2377
2412
2531
2459
2526
2617
2607
2569
2666
2662
2665
2691
2598
2588
2558
2534
2516
2407
2417
2301
2271
2243
2359
2356
2256
2133
2085
2003
1963
1994
1942
1856
1729
1740
1753
1678
1563
1628
1645
1662
1616
1588
1610
1541
1578
1583
1629
1576
1587
1618
1566
1558
1539
1613
1598
1675
1622
1606
1627
1685
1687
1646
1795
1867
1880
1939
1931
1850

Full

Si2p
1
110.0000
-0.1000
200
1088.57
1057.14
1104.29
1092.86
1100
1112.86
1158.57
1087.14
1102.86
1062.86
1032.86
1092.86
1034.29
1138.57
1071.43
1055.71
1147.14
1132.86
1044.29
984.2857
1067.14
1112.86
1151.43
1077.14
1111.43
1108.57
1098.57
1140
1075.71
1082.86
1141.43
1067.14
1150
1141.43
1118.57
1101.43
1115.71
988.5715
1162.86
1092.86
1085.71
1134.29
1090
1107.14
1107.14
1098.57
998.5715
1038.57
1091.43
1037.14
1128.57
1101.43
1031.43
1158.57
1070
1177.14
1111.43
1042.86
1025.71
1011.43
1045.71
1065.71
1094.29
1028.57
1060
1025.71
1082.86
1072.86
1081.43
1030
1020
985.7143
1110
1042.86
1072.86
1057.14
1032.86
1061.43
1082.86
1092.86
1052.86
1071.43
1071.43
1057.14
1008.57
1054.29
1074.29
1035.71
1094.29
1104.29
1004.29
1021.43
1062.86
1057.14
1048.57
1042.86
998.5715
1038.57
1050
1008.57
1097.14
1034.29
958.5715
1058.57
1044.29
1011.43
984.2857
1001.43
952.8572
938.5715
1007.14
1000
1032.86
1014.29
1010
1040
1025.71
1004.29
992.8572
1004.29
1032.86
957.1429
1040
1064.29
990.0000
1025.71
991.4286
1041.43
1018.57
1035.71
1007.14
1110
1055.71
1065.71
1124.29
1045.71
1088.57
1080
1042.86
1085.71
1102.86
1132.86
1008.57
1151.43
1100
1075.71
1102.86
1092.86
1061.43
1061.43
988.5715
1121.43
1050
1047.14
1084.29
1094.29
1034.29
1071.43
1054.29
1034.29
988.5715
1108.57
1042.86
1037.14
1101.43
1037.14
1112.86
1070
1061.43
1054.29
1012.86
1092.86
1015.71
1060
1035.71
1032.86
1024.29
1010
1058.57
997.1429
1044.29
1028.57
1022.86
1035.71
1002.86
1035.71
1031.43
1025.71
1045.71
960.0000
1051.43
1054.29
977.1429
1014.29
1147.14
1024.29
1064.29
1060
1081.43
1037.14

Full

Fe3p
1
65.0000
-0.1000
200
722.0000
683.0000
737.0000
692.0000
694.0000
690.0000
679.0000
710.0000
716.0000
708.0000
729.0000
687.0000
746.0000
753.0000
771.0000
765.0000
729.0000
739.0000
755.0000
735.0000
735.0000
713.0000
759.0000
742.0000
716.0000
788.0000
736.0000
750.0000
791.0000
786.0000
746.0000
754.0000
786.0000
743.0000
750.0000
761.0000
773.0000
798.0000
710.0000
721.0000
729.0000
733.0000
758.0000
732.0000
743.0000
737.0000
690.0000
706.0000
718.0000
674.0000
724.0000
757.0000
738.0000
659.0000
716.0000
723.0000
710.0000
689.0000
711.0000
780.0000
679.0000
694.0000
714.0000
703.0000
754.0000
721.0000
703.0000
705.0000
743.0000
753.0000
705.0000
679.0000
686.0000
716.0000
703.0000
740.0000
725.0000
732.0000
720.0000
717.0000
773.0000
698.0000
716.0000
674.0000
727.0000
722.0000
708.0000
700.0000
664.0000
724.0000
703.0000
715.0000
631.0000
696.0000
710.0000
663.0000
720.0000
704.0000
694.0000
715.0000
705.0000
757.0000
675.0000
726.0000
712.0000
713.0000
725.0000
703.0000
689.0000
720.0000
768.0000
707.0000
712.0000
708.0000
747.0000
755.0000
700.0000
759.0000
732.0000
807.0000
782.0000
766.0000
747.0000
825.0000
840.0000
775.0000
832.0000
833.0000
850.0000
908.0000
859.0000
845.0000
918.0000
930.0000
878.0000
975.0000
937.0000
936.0000
980.0000
1031
1053
1076
1094
1171
1177
1136
1184
1285
1349
1271
1272
1278
1277
1353
1254
1259
1232
1147
1123
1079
1019
951.0000
927.0000
824.0000
828.0000
776.0000
698.0000
630.0000
620.0000
592.0000
533.0000
537.0000
542.0000
493.0000
483.0000
459.0000
453.0000
476.0000
444.0000
477.0000
391.0000
382.0000
384.0000
402.0000
423.0000
379.0000
368.0000
363.0000
393.0000
373.0000
404.0000
375.0000
347.0000
380.0000
346.0000
405.0000
364.0000
377.0000
399.0000
398.0000

Full

Fe2p3
1
90.0000
-0.1000
150
1111
1006
1026
1109
1066
1105
1092
1063
1061
1096
1133
1044
1106
1092
1191
1141
1127
1160
1148
1207
1206
1257
1210
1262
1236
1187
1188
1241
1213
1241
1317
1283
1255
1268
1299
1295
1313
1307
1312
1300
1300
1351
1278
1384
1377
1322
1294
1313
1357
1339
1363
1222
1347
1360
1350
1321
1322
1387
1325
1373
1325
1393
1336
1322
1392
1446
1404
1521
1504
1533
1484
1562
1576
1547
1569
1535
1545
1490
1613
1511
1485
1409
1376
1435
1321
1222
1245
1244
1136
1131
1151
1089
1048
1021
1013
973.0000
1007
939.0000
920.0000
950.0000
932.0000
869.0000
935.0000
823.0000
879.0000
845.0000
856.0000
898.0000
851.0000
891.0000
821.0000
865.0000
869.0000
851.0000
848.0000
835.0000
851.0000
810.0000
819.0000
841.0000
837.0000
812.0000
836.0000
793.0000
771.0000
761.0000
799.0000
820.0000
812.0000
798.0000
810.0000
819.0000
816.0000
813.0000
768.0000
771.0000
751.0000
783.0000
808.0000
869.0000
850.0000
812.0000
789.0000
849.0000
772.0000
788.0000
792.0000
813.0000
791.0000
777.0000