Folder: thesis/assets/data/P03/xps (part 3)

File: 7B0306_3.asc
Full

C1s
1
290.0000
-0.1000
150
932.0000
923.0000
967.0000
960.0000
935.0000
946.0000
914.0000
895.0000
969.0000
879.0000
967.0000
908.0000
992.0000
1000
973.0000
985.0000
981.0000
1005
1013
980.0000
949.0000
1017
938.0000
992.0000
992.0000
959.0000
895.0000
927.0000
869.0000
926.0000
916.0000
861.0000
841.0000
794.0000
948.0000
927.0000
910.0000
922.0000
938.0000
919.0000
925.0000
870.0000
912.0000
926.0000
918.0000
902.0000
958.0000
893.0000
843.0000
839.0000
871.0000
856.0000
840.0000
862.0000
900.0000
920.0000
920.0000
848.0000
872.0000
907.0000
972.0000
977.0000
954.0000
1067
1038
1129
1140
1216
1254
1315
1331
1441
1355
1423
1458
1434
1356
1382
1327
1317
1275
1244
1333
1242
1256
1212
1306
1228
1303
1366
1431
1526
1633
1542
1670
1743
1854
2009
2085
2308
2579
2871
3420
3817
4434
5124
5747
6140
6506
6953
6832
6852
6474
5926
5177
4339
3497
2933
2468
1927
1652
1341
1237
1065
937.0000
896.0000
887.0000
872.0000
876.0000
850.0000
852.0000
841.0000
813.0000
891.0000
784.0000
785.0000
821.0000
834.0000
816.0000
797.0000
818.0000
760.0000
802.0000
809.0000
834.0000
846.0000
771.0000
828.0000
801.0000
838.0000

Full

O1s
1
535.0000
-0.1000
150
1861
1932
1809
1822
1848
1844
1823
1823
1840
1824
1790
1767
1831
1705
1748
1712
1702
1798
1697
1755
1782
1800
1744
1759
1679
1760
1760
1725
1750
1674
1748
1721
1691
1699
1766
1673
1703
1732
1784
1684
1842
1786
1835
1787
1757
1801
1861
1875
1767
1715
1750
1731
1779
1854
1793
1735
1747
1803
1733
1827
1737
1791
1910
1872
1888
2024
2079
2108
2149
2184
2280
2336
2530
2604
2706
2778
2849
3010
3168
3260
3391
3486
3705
4000
4113
4415
4615
4777
4933
5076
5140
5143
5169
5229
5224
5095
5167
5081
5129
5323
5790
6109
6508
7185
7636
8475
8826
9035
9324
8892
8629
7996
7381
6424
5565
4751
4042
3351
2915
2480
2115
1808
1713
1575
1539
1453
1461
1463
1375
1413
1375
1436
1355
1376
1264
1346
1329
1296
1283
1324
1330
1309
1310
1326
1318
1251
1301
1273
1355
1290

Full

Fe2p
1
-0.1000
5179.33
5186.67
5085
5208.67
5139.33
5185.33
5099
5125.67
5174
5184
5093
5077.33
5083.67
5117.67
5080.33
5030.33
5111.67
5194.67
5078
5195.67
5145
5122
5106
5124.67
5068.67
5149.33
5073.33
5120.67
5161.67
5256.67
5155
5229.33
5226.67
5216.33
5293.33
5257.67
5202
5209
5227.67
5205.33
5218
5147.33
5252.33
5127
5119
5137.67
5103.67
5109.33
5073.67
4978
5006.33
5045.67
5001.67
5013.67
4925.33
5047.33
5030.67
5005
5039.33
5019.33
5048.33
5084
5103
5087
5185.33
5165.67
5230
5293.67
5352
5354.33
5353
5452.33
5493.67
5548.33
5561.33
5570.67
5741.33
5650
5791.33
5642.67
5783.33
5666.67
5805.67
5658.33
5609
5460
5377
5347
5262
5076
5013.33
4911
4816
4720.67
4705.67
4638.33
4583.67
4567.33
4652
4608.33
4572.33
4646
4639.67
4628.67
4715.67
4681.33
4687.33
4656.67
4669
4711.33
4624.67
4637
4521.33
4398.67
4509.33
4496.33
4475.67
4379.67
4330
4345
4307
4276.67
4379.33
4185.67
4203
4298.67
4294
4305.33
4317.67
4476
4442.67
4491.67
4588.33
4656.33
4625.33
4818
4894.67
4986
5093
5136.33
5253
5275.67
5431
5576.67
5620.33
5827
5988
5996.67
6103.33
6137.33
6009.67
6025.67
5878.67
5643.33
5427.67
4999
4636
4165.33
3769.67
3356
3240
3091
3005
2946.33
2963.33
2921.33
2906
2906.33
2884.33
2843.67
2805
2875.67
2786
2794.33
2827.67
2816.67
2768
2828.67
2829.33
2843.67
2854.67
2803.33
2797.67
2820
2810.33
2785.33
2807.67
2833.33
2767
2806.33
2810.67
2809.33
2772
2738
2813.33
2834.67
2795.67
2834.33
2806.67
2810.33
2776.33

Full

Zn2p3
1
-0.1000
7916
7769
7896
7750
7862
7908
7730
7774
7763
7792
8028
7781
7792
7664
7783
7868
7884
7694
7561
7905
7862
7900
7813
7766
7910
7959
7958
7801
7821
7674
7717
7735
7904
8028
7901
7852
7704
7974
7843
7927
7881
7904
7801
7782
7897
8082
8058
8120
8054
8289
8159
8746
8784
8806
9080
9193
9102
9178
8813
8700
8488
8334
8106
8160
7999
7983
7989
7955
7822
8043
7853
8007
7938
7887
8069
8034
8004
7811
7903
7958
7993
7824
7995
7802
7883
7842
7887
7813
7868
7863
7731
7811
7915
7706
7798
7806
7728
7865
7800
7654
7926
7852
7647
7781
7834
7962
7729
7767
7667
7837
7871
7722
7699
7675
7718
7762
7822
7725
7723
7786
7724
7784
7774
7775
7778
7789
7765
7928
7799
7852
7761
7612
7710
7599
7720
7732
7742
7812
7583
7704
7654
7690
7756
7782
7476
7591
7780
7693
7794
7695
7772
7623
7725
7613
7677
7786
7891
7702
7612
7799
7901
8007
8124
8061
8236
8697
9118
9583
9846
10307
10509
10909
10741
10124
9710
9454
8641
8441
8061
8055
8069
7734
7830
7850
7735
7752
7826
7593
7883
7665
7731
7899
7765
7894
7817
7784
7879
7728
7783
7723
7686
7747
7697
7763
7694
7743
7712
7793
7620
7786
7644
7804
7789
7627
7773
7805
7832
7653
7759
7751
7889
7625
7882
7659
7555
7913

Full

Ag3d
1
375.0000
-0.1000
200
918.0000
920.0000
920.0000
846.0000
964.0000
900.0000
872.0000
900.0000
910.0000
962.0000
832.0000
942.0000
876.0000
902.0000
874.0000
904.0000
868.0000
850.0000
948.0000
878.0000
868.0000
904.0000
832.0000
868.0000
904.0000
866.0000
882.0000
902.0000
904.0000
932.0000
976.0000
948.0000
784.0000
872.0000
934.0000
908.0000
978.0000
900.0000
892.0000
920.0000
896.0000
1048
910.0000
912.0000
858.0000
844.0000
876.0000
906.0000
880.0000
888.0000
846.0000
900.0000
886.0000
904.0000
1002
924.0000
1126
1224
1346
1418
1414
1686
1890
1996
2010
1966
1976
1906
1756
1638
1386
1346
1292
1112
1086
1020
998.0000
996.0000
870.0000
866.0000
910.0000
874.0000
876.0000
896.0000
956.0000
852.0000
926.0000
990.0000
928.0000
790.0000
786.0000
902.0000
882.0000
914.0000
792.0000
922.0000
826.0000
874.0000
864.0000
878.0000
836.0000
834.0000
872.0000
882.0000
834.0000
866.0000
854.0000
890.0000
932.0000
834.0000
880.0000
840.0000
962.0000
942.0000
998.0000
1104
1168
1300
1428
1542
1830
1906
2302
2458
2496
2532
2452
2328
2088
1844
1682
1526
1426
1260
1178
1140
1032
962.0000
928.0000
968.0000
882.0000
894.0000
926.0000
816.0000
892.0000
800.0000
882.0000
860.0000
904.0000
830.0000
804.0000
858.0000
874.0000
860.0000
932.0000
830.0000
838.0000
814.0000
830.0000
860.0000
844.0000
880.0000
860.0000
798.0000
816.0000
796.0000
856.0000
830.0000
812.0000
868.0000
810.0000
794.0000
854.0000
870.0000
916.0000
848.0000
884.0000
834.0000
812.0000
812.0000
816.0000
828.0000
836.0000
854.0000
904.0000
848.0000
796.0000
896.0000
860.0000
858.0000
822.0000
826.0000
836.0000
870.0000
894.0000
856.0000
870.0000
884.0000
788.0000
880.0000

Full

Sn3d5
1
-0.1000
1228
1149
1174
1186
1170
1263
1224
1242
1218
1204
1160
1179
1236
1215
1165
1224
1195
1218
1241
1304
1217
1199
1160
1201
1208
1204
1186
1227
1189
1154
1213
1167
1180
1195
1262
1228
1207
1186
1251
1183
1155
1171
1198
1235
1182
1191
1187
1249
1181
1274
1265
1216
1141
1197
1238
1189
1191
1236
1235
1134
1226
1200
1211
1239
1263
1180
1265
1221
1244
1245
1215
1294
1217
1267
1251
1262
1301
1315
1324
1323
1392
1485
1468
1500
1463
1521
1567
1611
1644
1743
1749
1741
1757
1799
1666
1694
1546
1591
1509
1469
1421
1405
1384
1369
1364
1323
1291
1222
1318
1247
1239
1243
1203
1160
1066
1064
1040
984.0000
1018
942.0000
1016
1042
956.0000
1004
977.0000
914.0000
947.0000
947.0000
999.0000
946.0000
951.0000
975.0000
985.0000
977.0000
942.0000
991.0000
974.0000
949.0000
955.0000
945.0000
978.0000
942.0000
985.0000
949.0000
931.0000
901.0000
915.0000
953.0000
952.0000
890.0000
968.0000

Full

Si2p
1
110.0000
-0.1000
200
878.5715
847.1429
957.1429
892.8572
854.2857
895.7143
922.8572
971.4286
908.5715
875.7143
885.7143
898.5715
840.0000
910.0000
960.0000
885.7143
925.7143
884.2857
864.2857
907.1429
887.1429
895.7143
932.8572
898.5715
932.8572
938.5715
[...]
904.2857
918.5715
824.2857
860.0000
968.5715
868.5715
938.5715
881.4286
907.1429
831.4286
895.7143
878.5715
872.8572
915.7143
808.5715
840.0000
931.4286
878.5715
914.2857
977.1429
830.0000
907.1429
847.1429
874.2857
857.1429
887.1429
855.7143
872.8572
898.5715
852.8572
841.4286
838.5715
835.7143
934.2857
800.0000
884.2857
841.4286
905.7143
895.7143
898.5715
888.5715

Full

Fe3p
1
65.0000
-0.1000
200
590.0000
563.0000
591.0000
609.0000
541.0000
610.0000
531.0000
624.0000
541.0000
582.0000
557.0000
529.0000
566.0000
571.0000
568.0000
590.0000
601.0000
591.0000
581.0000
558.0000
626.0000
621.0000
672.0000
577.0000
555.0000
565.0000
592.0000
585.0000
566.0000
564.0000
577.0000
587.0000
608.0000
566.0000
562.0000
553.0000
626.0000
614.0000
617.0000
582.0000
581.0000
611.0000
561.0000
614.0000
616.0000
599.0000
571.0000
561.0000
635.0000
594.0000
627.0000
595.0000
594.0000
616.0000
560.0000
598.0000
554.0000
631.0000
599.0000
591.0000
629.0000
597.0000
645.0000
653.0000
633.0000
626.0000
575.0000
646.0000
631.0000
601.0000
588.0000
608.0000
656.0000
622.0000
581.0000
644.0000
610.0000
615.0000
547.0000
588.0000
601.0000
582.0000
611.0000
606.0000
546.0000
577.0000
557.0000
542.0000
545.0000
582.0000
579.0000
570.0000
573.0000
544.0000
574.0000
565.0000
552.0000
592.0000
571.0000
550.0000
582.0000
566.0000
573.0000
560.0000
576.0000
587.0000
603.0000
608.0000
630.0000
603.0000
627.0000
620.0000
674.0000
654.0000
646.0000
679.0000
698.0000
669.0000
677.0000
698.0000
674.0000
712.0000
724.0000
701.0000
748.0000
754.0000
801.0000
766.0000
792.0000
785.0000
827.0000
860.0000
891.0000
952.0000
962.0000
986.0000
1052
1072
1193
1145
1172
1237
1217
1313
1384
1345
1315
1413
1387
1359
1397
1402
1337
1256
1237
1193
1093
1008
982.0000
876.0000
772.0000
753.0000
631.0000
564.0000
500.0000
486.0000
424.0000
385.0000
368.0000
365.0000
335.0000
358.0000
346.0000
292.0000
287.0000
295.0000
301.0000
265.0000
268.0000
288.0000
275.0000
266.0000
260.0000
229.0000
261.0000
270.0000
229.0000
240.0000
237.0000
266.0000
252.0000
244.0000
277.0000
243.0000
215.0000
265.0000
254.0000
286.0000
245.0000
247.0000

Full

Fe2p3
1
95.0000
-0.1000
200
899.0000
930.0000
950.0000
900.0000
869.0000
941.0000
888.0000
888.0000
859.0000
919.0000
893.0000
921.0000
933.0000
924.0000
940.0000
907.0000
888.0000
905.0000
864.0000
838.0000
844.0000
903.0000
946.0000
881.0000
873.0000
889.0000
857.0000
795.0000
889.0000
836.0000
840.0000
856.0000
848.0000
916.0000
802.0000
859.0000
873.0000
874.0000
864.0000
861.0000
889.0000
882.0000
884.0000
838.0000
872.0000
863.0000
856.0000
886.0000
906.0000
913.0000
889.0000
886.0000
944.0000
946.0000
890.0000
956.0000
899.0000
976.0000
980.0000
1027
1006
1015
964.0000
1055
967.0000
1008
1104
1067
1037
1088
1101
1050
1070
1091
1098
1070
1029
1105
1069
1022
1048
1032
1090
1043
1076
1082
1050
1114
1050
1057
1103
1049
1064
1116
1099
1061
1056
1064
1016
1045
1062
1041
1054
1016
1053
1069
1125
1001
1082
1020
1118
1204
1092
1135
1157
1197
1202
1209
1209
1139
1282
1193
1209
1174
1185
1133
1130
1126
1129
1060
1080
1063
992.0000
952.0000
901.0000
930.0000
896.0000
830.0000
830.0000
838.0000
794.0000
865.0000
782.0000
831.0000
732.0000
791.0000
782.0000
740.0000
793.0000
733.0000
713.0000
716.0000
751.0000
699.0000
729.0000
690.0000
725.0000
733.0000
740.0000
745.0000
713.0000
677.0000
711.0000
676.0000
680.0000
754.0000
711.0000
653.0000
729.0000
643.0000
670.0000
730.0000
674.0000
684.0000
650.0000
693.0000
646.0000
689.0000
686.0000
689.0000
727.0000
708.0000
700.0000
678.0000
643.0000
696.0000
651.0000
703.0000
688.0000
690.0000
665.0000
665.0000
679.0000
687.0000
697.0000
685.0000
676.0000
671.0000
704.0000
714.0000

File: MH1210_36.asc
Full

C1s
1
296.0000
-0.1000
180
1553.33
1466.67
1571.67
1511.67
1473.33
1558.33
1503.33
1511.67
1451.67
1488.33
1368.33
1555
1396.67
1511.67
1510
1568.33
1516.67
1493.33
1505
1506.67
1516.67
1443.33
1485
1460
1431.67
1535
1530
1425
1431.67
1451.67
1426.67
1458.33
1381.67
1398.33
1366.67
1380
1450
1510
1365
1423.33
1370
1381.67
1435
1436.67
1533.33
1330
1353.33
1430
1371.67
1465
1391.67
1321.67
1438.33
1455
1438.33
1353.33
1500
1451.67
1526.67
1460
1451.67
1545
1603.33
1571.67
1675
1711.67
1788.33
1833.33
1938.33
2016.67
2025
2066.67
2091.67
2023.33
2115
2126.67
2105
2043.33
1986.67
2066.67
1841.67
1821.67
1718.33
1731.67
1681.67
1735
1743.33
1761.67
1735
1878.33
1855
1901.67
1981.67
2231.67
2403.33
2536.67
2638.33
3063.33
3210
3870
4320
4873.33
5665
6486.67
7485
8368.33
9181.67
10111.7
10913.3
11213.3
11510
11136.7
10780
9685
8390
7188.33
6070
4921.67
4098.33
3240
2643.33
2280
2058.33
1698.33
1615
1605
1525
1411.67
1431.67
1438.33
1346.67
1368.33
1355
1348.33
1333.33
1378.33
1375
1290
1338.33
1308.33
1275
1345
1358.33
1286.67
1278.33
1290
1395
1258.33
1358.33
1291.67
1381.67
1246.67
1413.33
1290
1315
1295
1275
1328.33
1311.67
1276.67
1250
1240
1335
1273.33
1333.33
1341.67
1308.33
1338.33
1215
1323.33
1390
1291.67
1308.33
1271.67
1211.67
1251.67
1321.67
1330
1211.67
1258.33

Full

O1s
1
540.0000
-0.1000
140
3002
3046
3062.5
3069
2947
3023
2997
3007
2962
2925.5
2930.5
2946.5
2959
2989.5
2957.5
2950
2992.5
2896
2945.5
2924.5
2958.5
2941
2851.5
2882.5
2921.5
2875
2970
2881
2853.5
2887.5
2885
2928.5
2825
2830
2899
2902.5
2892
2876
2960.5
2928.5
2842.5
2874.5
2835.5
2906.5
2880.5
2841
2804.5
2843
2927.5
2826.5
2921
2923.5
2888.5
2972
2986
3130.5
3043.5
3115
3214
3315
3365.5
3338
3433
3527.5
3585.5
3774
3905.5
4082.5
4229
4354.5
4583
4857.5
5004
5384.5
5690.5
6057.5
6441.5
6797.5
7035.5
7309.5
7506.5
7952.5
8017
8316
8279.5
8379.5
8329
8425.5
8561.5
8663
8731.5
9145.5
9522
10325.5
11073.5
11893
12575
13267
13607
13638.5
13432.5
12868
12052
10987
9740
8668
7425
6317.5
5439.5
4658
4078
3619.5
3310
3023
2832
2697
2616.5
2599.5
2493.5
2538
2515
2460
2475
2414
2390
2407.5
2409
2336.5
2369
2382.5
2373
2391.5
2340
2333
2319.5
2349.5
2364.5
2386
2360
2315

Full

F1s
1
700.0000
-0.1000
200
5174.5
5179.5
5169.5
5152
5110
5210
5133
5168
5191.5
5147
5153.5
5147.5
5158
5210
5254.5
5233.5
5243
5210
5153
5153
5153
5184.5
5292
5292.5
5130
5270
5201.5
5202
5121.5
5182
5265.5
5247
5139
5153.5
5150
5215.5
5158.5
5126.5
5169.5
5190
5201
5176.5
5187.5
5138.5
5238
5204.5
5169.5
5171
5100
5129.5
5200.5
5136.5
5171
5129.5
5096.5
5177.5
5171
5099
5134
5152
5266
5103
5051.5
5126
5164.5
5150
5064.5
5121.5
5112
5131.5
5075
5070
5136.5
5122.5
5173
5065.5
5084.5
5068.5
5046.5
5149
5139
5059.5
5171
5028.5
5105
5138.5
5150.5
5134.5
5088.5
5202.5
5176.5
5206.5
5247
5206
5173.5
5283.5
5163
5388.5
5383.5
5367.5
5408.5
5382
5410
5396
5342
5366.5
5409.5
5423.5
5321.5
5277.5
5352
5357.5
5316
5246.5
5259.5
5264
5159
5158
5152
5070.5
5133
5097
5147
5096.5
5074.5
5054
5025
5093.5
5052.5
5121
5004.5
5091
5059
5018
4941
5085
5053.5
5068.5
5120.5
5121.5
5088.5
5093
5082
5172
5024.5
5076
5052
5081.5
5046
5035.5
5139
5029
5186
5117.5
5179
5084.5
5238
5089.5
5131.5
5034
5197
5014
5064
5143.5
5097
5131
5087.5
4996.5
5108.5
4990
5121
5108
5097.5
5121
5142
5062.5
5132
5143.5
5149
5131
5068.5
5131.5
5003
5008
5038
5067.5
5136
5112
5073.5
5080
5046.5
5074
5142.5
5072.5
4990
5037.5
5004.5
5111.5
5077.5
5082.5

Full

Zn2p3
1
-0.1000
10511.5
10528.5
10398.2
10441.5
10418.2
10599.8
10511.5
10440.8
10408.2
10438.8
10399.2
10508.2
10573.2
10559.8
10498.8
10530
10410.2
10408.8
10437.2
10402.5
10428.2
10477.2
10459.8
10504.5
10565.5
10476.8
10475.2
10567.2
10447.2
10534.2
10334
10428.2
10532
10395.2
10419.5
10527.2
10551.8
10493.5
10526
10581.5
10614.8
10614.8
10588.5
10637.5
10711
10659.2
10829.8
11037.2
11233
11238.8
11642.2
11810.5
12196
12598.8
13061
13339.8
13512.2
13502
13222.8
12841.5
12397
11907.8
11464
11169
10919
10849.2
10831
10748.8
10702
10655.8
10688.5
10662
10577.2
10654.8
10477.8
10525.5
10518.5
10586
10582
10548.8
10475
10516.8
10510.5
10539.8
10472
10452.8
10405.5
10513
10462
10460.5
10496
10535.2
10405.2
10404.5
10415.5
10424.8
10373.8
10384.8
10345.8
10372
10387
10371
10336.5
10404.5
10365.8
10407.8
10370
10284.5
10404.5
10286
10282.2
10223
10221.5
10283.5
10291.2
10213.8
10255.2
10285.8
10181
10085.2
10125.8
10206.2
10234.8
10218.5
10229.8
10227.8
10277.5
10123.5
10123.2
10182
10090.2
10150.5
10151.5
10177.2
10111.2
10189
10125
10129.2
10017.8
10043
10035.5
10018.8
10084.2
10116.2
10099.2
10116
10185
10098
10088.2
10118.2
10120.2
10089.8
10067
10098.8
10185.8
10221.5
10163.8
10270
10219.8
10255.2
10337.2
10593.2
10639
11030.2
11343.8
11756
12397.8
13138
14078
14825.5
15826.2
16372
16305
16156
15264.5
14284.2
13188.5
12200.8
11514.8
11168.8
10752.5
10493.8
10370
10342.8
10249
10274.8
10159.2
10181
10134.5
10142.8
10069
10080.8
10063.2
10064
10076.8
10022.8
10172.8
10133
10013
10121.2
10035.5

Full

Fe2p
1
-0.1000
7648.67
7755.67
7695.83
7644.17
7667.83
7656.67
7674
7627.67
7692.5
7640
7592.17
7635.67
7667.5
7631.33
7675.5
7661.5
7718.33
7651.83
7705.17
7761.17
7737.33
7686.5
7709.17
7767.83
7757.83
7731.83
7836.67
7742.33
7812.5
7844.17
7800
7936
7881
7835
7833
7794.17
7848.33
7838.67
7781.5
7756.83
7821
7671.5
7726.5
7751.5
7685.67
7746
7613.5
7555.33
7570
7731.83
7645.33
7672
7663.17
7639.83
7652.17
7703.17
7652.83
7772.17
7774.67
7808.67
7807.67
7905.5
7897
7959
7959.33
7994
8081
8170
8223.83
8310.83
8184.83
8384.17
8330.5
8373.33
8416.17
8501.83
8460.83
8433.67
8427.67
8300
8312.17
8199.17
8118.5
7985.33
7913.33
7730.67
7641.17
7518.33
7475.33
7347.17
7251.33
7227.5
7231
7193.67
7253.5
7272
7204.33
7206.17
7251
7282.17
7273.33
7326.5
7310.17
7313.33
7251.83
7257.17
7277.67
7273.17
7187.67
7233
7135.83
7154.17
7119.5
7075.83
7095.5
7013.17
6982.33
6961.67
6970.67
7017.83
7010.83
7031
7098.5
7061.5
7130.17
7151.33
7215.5
7305
7392.33
7414.83
7502
7624.5
7654.83
7803
7818.67
8103
8092.17
8245
8357.17
8467.5
8538.67
8637
8799.33
8908.67
8986.83
8950.17
8884.33
8700.67
8463
8266.17
7914.5
7512
7108.83
6571.83
6244.83
5962.83
5760.17
5680.83
5613
5593.5
5457.5
5466
5403.17
5349.5
5399.83
5362.83
5353.33
5385.17
5362.67
5381
5380.17
5360
5345.83
5345.33
5392.5
5314.83
5366.83
5333
5347
5346.17
5369.67
5344.17
5347.83
5280
5339
5254.67
5322.17
5251.33
5268
5252
5307.33
5291.5
5263.5
5261.17
5181.17
5213.33
5262
5218.33
5270.17
5196.5
5230

Full

Ag3d
1
384.0000
-0.1000
200
1378
1331
1349
1324
1339
1351
1302
1339
1306
1333
1328
1347
1350
1318
1316
1314
1184
1300
1319
1312
1399
1367
1349
1279
1280
1393
1252
1271
1309
1269
1376
1308
1351
1323
1332
1376
1353
1321
1308
1315
1295
1238
1286
1312
1317
1363
1297
1344
1268
1245
1310
1356
1286
1370
1273
1290
1301
1309
1344
1334
1324
1343
1283
1316
1374
1303
1347
1353
1262
1331
1316
1335
1367
1323
1323
1332
1356
1370
1361
1301
1361
1309
1366
1336
1352
1442
1462
1486
1498
1583
1781
1818
1864
1917
2110
2215
2101
2098
2145
1991
1865
1736
1652
1661
1556
1455
1433
1391
1400
1333
1356
1359
1343
1318
1348
1317
1305
1304
1342
1295
1279
1373
1338
1301
1301
1335
1276
1306
1348
1280
1268
1321
1259
1278
1328
1366
1252
1309
1310
1349
1302
1422
1329
1327
1421
1376
1424
1563
1611
1638
1910
2031
2183
2356
2486
2503
2551
2385
2305
2246
1993
1815
1817
1684
1634
1501
1512
1438
1427
1401
1325
1344
1372
1334
1248
1289
1314
1275
1316
1362
1299
1363
1258
1340
1295
1312
1223
1313
1306
1309
1308
1288
1245
1295
1360
1327
1247
1256
1309
1294

Full

Sn3d5
1
500.0000
-0.1000
200
2686
2627
2833
2748
2799
2847
2810
2939
3047
3067
3118
3127
3236
3148
3101
3294
3318
3254
3457
3423
3427
3397
3341
3462
3396
3260
3228
3177
3185
3120
3098
2989
3102
2957
2856
2870
2745
2796
2718
2714
2683
2750
2788
2726
2670
2713
2704
2718
2675
2645
2641
2570
2505
2420
2471
2317
2330
2316
2271
2221
2208
2190
2024
2035
1990
1969
1943
1929
1871
1829
1845
1792
1791
1801
1757
1722
1671
1731
1614
1612
1616
1705
1553
1627
1673
1617
1685
1602
1655
1589
1633
1617
1627
1516
1548
1547
1559
1601
1621
1527
1521
1547
1572
1529
1558
1603
1554
1520
1593
1693
1492
1579
1563
1569
1585
1496
1599
1607
1609
1583
1650
1718
1702
1710
1786
1780
1840
1881
1820
1953
1991
1930
1911
2054
1997
1991
1862
1855
1819
1775
1728
1744
1600
1626
1551
1579
1555
1599
1481
1560
1583
1590
1607
1602
1529
1570
1567
1535
1661
1577
1526
1530
1570
1505
1597
1547
1605
1529
1590
1535
1525
1574
1521
1528
1531
1567
1532
1603
1603
1559
1575
1602
1548
1572
1569
1568
1584
1559
1579
1565
1517
1566
1579
1576
1524
1581
1566
1528
1545
1521

Full

Si2p
1
115.0000
-0.1000
200
1416
1435
1449
1427
1516
1510
1486
1444
1452
1433
1491
1454
1504
1446
1529
1468
1507
1477
1441
1480
1509
1494
1463
1538
1520
1446
1476
1460
1480
1458
1489
1444
1472
1362
1370
1441
1440
1451
1444
1398
1388
1400
1369
1414
1405
1322
1384
1405
1343
1378
1387
1403
1379
1379
1381
1381
1329
1326
1361
1299
1460
1328
1328
1372
1336
1386
1363
1369
1381
1360
1377
1331
1313
1338
1348
1381
1272
1299
1257
1336
1364
1279
1295
1227
1332
1252
1359
1321
1298
1278
1268
1308
1320
1283
1275
1272
1283
1242
1247
1279
1259
1362
1293
1284
1321
1291
1280
1321
1276
1302
1321
1291
1292
1280
1311
1288
1337
1313
1328
1406
1349
1297
1333
1424
1337
1396
1415
1347
1393
1365
1403
1348
1408
1341
1375
1329
1326
1254
1340
1326
1309
1302
1327
1334
1301
1290
1321
1294
1338
1302
1298
1328
1224
1240
1372
1245
1378
1331
1306
1291
1301
1322
1237
1348
1298
1280
1207
1288
1235
1236
1274
1260
1336
1242
1263
1259
1228
1350
1261
1289
1262
1297
1300
1304
1305
1298
1243
1288
1232
1329
1313
1312
1360
1366
1324
1315
1366
1323
1461
1382