Folder: thesis/assets/data/P03/xps (part 2)

File: 7B0302_2.asc
Full

C1s
1
290.0000
-0.1000
150
1161
1171
1124
1242
1288
1184
1149
1231
1233
1135
1221
1202
1172
1158
1138
1142
1135
1074
1084
1088
1114
1043
1078
1051
1090
1088
1050
1054
1002
1018
1104
1057
1063
995.0000
1022
1043
998.0000
1022
993.0000
972.0000
1003
985.0000
986.0000
966.0000
991.0000
1001
956.0000
970.0000
938.0000
888.0000
920.0000
870.0000
893.0000
969.0000
914.0000
947.0000
965.0000
948.0000
914.0000
963.0000
944.0000
1023
955.0000
1013
1086
1100
1093
1113
1255
1314
1338
1356
1482
1523
1525
1576
1593
1515
1581
1501
1512
1572
1546
1451
1451
1485
1406
1414
1355
1318
1334
1414
1398
1424
1545
1533
1719
1716
2004
2098
2381
2560
2906
3345
3943
4625
5276
6241
7080
8302
9253
10390
11552
12318
12970
12996
12899
12470
11483
10263
8648
7092
5779
4539
3517
2729
2155
1831
1487
1309
1201
1125
1039
1039
989.0000
930.0000
925.0000
887.0000
902.0000
915.0000
871.0000
881.0000
885.0000
852.0000
902.0000
868.0000
877.0000
857.0000
863.0000
858.0000

Full

O1s
1
535.0000
-0.1000
150
1746
1682
1761
1643
1698
1656
1728
1727
1600
1677
1633
1670
1559
1618
1558
1657
1573
1624
1559
1579
1524
1626
1592
1553
1637
1561
1545
1534
1543
1531
1443
1526
1544
1522
1499
1510
1499
1516
1548
1517
1536
1534
1517
1576
1502
1533
1490
1510
1552
1499
1531
1541
1541
1551
1462
1507
1490
1543
1540
1548
1599
1552
1620
1621
1673
1588
1660
1665
1749
1813
1974
1960
2116
2086
2222
2326
2345
2402
2434
2613
2746
2753
2985
3080
3256
3436
3676
3880
3988
4291
4347
4554
4507
4570
4546
4529
4543
4438
4385
4109
3994
3934
3819
3658
3592
3471
3417
3307
3323
3436
3488
3813
4229
4686
5192
5776
6518
6989
7255
7432
7295
6688
6035
5262
4489
3712
3160
2540
2088
1874
1692
1500
1504
1311
1355
1322
1271
1225
1271
1336
1292
1217
1230
1286
1205
1227
1190
1234
1215
1193

Full

Fe2p
1
-0.1000
4342
4332.67
4329
4307.67
4195.33
4352
4203.33
4296
4204
4256.33
4258
4214
4111
4165.33
4234.33
4131.67
4127.33
4086.67
4145
4236.33
4153.67
4135.67
4123.33
4167.67
4136.33
4108.33
4150.33
4156.33
4170.67
4176.67
4271
4195.33
4144.67
4194
4139.67
4145.33
4197.33
4189.67
4229.33
4175
4307
4193.33
4213.33
4187.33
4162
4190.67
4156
4167
4210
4151
4109.33
4068.67
4088.33
4102.33
4019
4028.67
4075
4080
4012
4018.33
4019.67
3993.67
3956.33
3969.33
4016.67
4034
4017
4006.67
4059.67
4044
4024.67
4108
4039.33
4139.33
4178.33
4207
4269.67
4244
4241.67
4263.67
4457
4374.67
4364
4391.67
4415.33
4385
4468
4500
4437.33
4428
4291.67
4329.67
4228.33
4166
4125.33
4026
3885.67
3724
3678.33
3593.67
3602.33
3606
3615.33
3600.67
3621.67
3535.67
3583
3585
3580.67
3583
3611
3615
3595
3599.33
3661
3567
3561.33
3483.33
3530.67
3450
3460
3417.67
3402
3424.67
3382
3336.33
3403.33
3340.33
3352.33
3345.33
3302.67
3311.33
3398
3378.67
3405.33
3465.67
3493
3551.67
3552.33
3635
3763
3802.33
3791
3871
3925
4033
4074.33
4180.67
4234.33
4251
4394.67
4628
4568
4656.67
4631.33
4609.67
4623
4474.33
4418
4341
4172.67
3979.67
3475
3042.33
2707.67
2523.33
2440.33
2375.67
2279.67
2318.33
2297.33
2283.67
2304.33
2288
2303.33
2268.33
2252.67
2253
2275.67
2262.67
2241
2264.67
2280.67
2230.67
2254.67
2266.67
2220
2271
2233.33
2257.33
2201
2281.67
2272.33
2243.33
2201.33
2189.33
2243
2219.67
2225
2191
2248.33

Full

Zn2p3
1
-0.1000
7065
7051
6994
7043
7031
7092
6964
7019
7073
7056
7085
7013
7069
7124
6943
7099
7136
7027
7101
7135
7116
7150
7194
7141
7214
6932
7114
6964
6960
7012
7022
7057
7002
7020
7115
6993
7104
7009
7165
7048
7070
7051
7298
7114
7097
7221
7297
7294
7225
7420
7346
7497
7587
7868
7880
7914
7714
7929
7614
7576
7724
7587
7570
7341
7396
7175
7212
7164
7099
7162
7123
7238
6983
7065
7157
7095
7152
7179
7239
7173
7142
7154
7189
7167
7122
7295
7125
7075
7268
7181
7264
7096
7142
7043
7072
7141
7094
7162
7113
7049
7193
7172
7216
7124
7147
7178
7144
7147
7158
6940
7044
7028
7241
7178
7134
7198
7103
7040
7036
7178
7189
6946
7171
6916
7189
7167
7230
7109
7037
7055
7016
7216
7018
7028
7112
7107
7187
7074
6983
7014
7038
7152
6938
7065
7141
6989
7195
7085
6992
7093
7033
7071
7134
7077
7172
7082
7166
7090
7172
7224
7283
7169
7284
7559
7715
7687
7900
8024
8259
8449
8468
8570
8682
8511
8303
8306
7946
7731
7608
7474
7614
7365
7180
7263
7123
7283
7202
7141
7081
7129
7208
7117
7224
7232
7136
7070
7070
7172
7091
7128
7241
7085
7237
7184
7150
7312
7119
7019
7154
7039
7048
7163
7204
7259
7023
7167
7319
7151
7246
7133
7172
7126
7058
7086
7060
7066

Full

Ag3d
1
375.0000
-0.1000
200
1220
1184
1098
1200
1316
1192
1262
1162
1166
1152
1140
1146
1176
1168
1098
1170
1212
1112
1194
1176
1094
1252
1112
1162
1224
1210
1162
1226
1236
1188
1196
1260
1114
1260
1248
1120
1136
1128
1244
1210
1134
1188
1112
1166
1162
1228
1170
1178
1202
1180
1128
1124
1182
1272
1190
1192
1238
1256
1264
1234
1222
1188
1332
1398
1416
1444
1596
1736
1926
1964
1982
2180
2308
2274
2190
2150
1984
1822
1664
1504
1496
1440
1294
1310
1156
1234
1194
1242
1298
1182
1184
1138
1174
1086
1160
1182
1220
1170
1220
1234
1088
1146
1056
1188
1070
1160
1200
1188
1130
1268
1124
1256
1202
1188
1146
1252
1244
1212
1194
1200
1300
1214
1222
1496
1490
1664
1790
1846
1962
2280
2538
2704
2752
2774
2644
2554
2346
2118
1816
1680
1510
1398
1304
1352
1370
1350
1244
1242
1128
1186
1264
1228
1248
1228
1212
1226
1220
1136
1262
1224
1204
1228
1216
1208
1240
1182
1226
1178
1214
1078
1190
1154
1122
1124
1266
1156
1126
1164
1154
1196
1146
1144
1222
1234
1176
1254
1116
1198
1132
1148
1200
1124
1122
1204
1118
1180
1132
1192
1218
1194

Full

Sn3d5
1
-0.1000
1116
1144
1140
1121
1220
1124
1151
1129
1112
1174
1103
1179
1159
1099
1097
1151
1135
1130
1146
1138
1204
1149
1155
1221
1138
1194
1198
1200
1133
1167
1127
1118
1049
1180
1195
1166
1117
1109
1129
1186
1136
1219
1147
1205
1104
1157
1230
1150
1148
1108
1174
1224
1107
1176
1188
1148
1170
1120
1241
1177
1150
1095
1121
1153
1167
1166
1203
1220
1171
1152
1196
1212
1174
1185
1234
1227
1269
1337
1325
1344
1323
1376
1362
1363
1319
1327
1340
1301
1328
1390
1355
1442
1388
1385
1406
1334
1267
1367
1236
1347
1248
1247
1231
1247
1185
1180
1126
1215
1191
1188
1199
1081
1069
1120
1146
1079
1089
1065
1078
1056
1031
1070
1060
1025
1022
1072
1056
1065
1091
1108
1054
1035
1051
1045
1022
1135
1015
1068
1081
1105
1035
1045
1076
1011
1097
1024
1107
1101
1074
1065
1069

Full

Si2p
1
110.0000
-0.1000
200
891.4286
841.4286
814.2857
874.2857
865.7143
917.1429
888.5715
840.0000
811.4286
821.4286
918.5715
857.1429
820.0000
834.2857
851.4286
830.0000
865.7143
827.1429
822.8572
815.7143
834.2857
850.0000
832.8572
860.0000
901.4286
801.4286
834.2857
764.2857
831.4286
881.4286
884.2857
860.0000
818.5715
847.1429
845.7143
861.4286
830.0000
885.7143
817.1429
804.2857
834.2857
847.1429
850.0000
815.7143
770.0000
875.7143
772.8572
808.5715
758.5714
782.8572
872.8572
791.4286
842.8572
845.7143
812.8572
760.0000
821.4286
837.1429
792.8572
888.5715
821.4286
764.2857
825.7143
811.4286
791.4286
771.4286
862.8572
790.0000
841.4286
751.4286
828.5715
858.5715
892.8572
851.4286
790.0000
772.8572
771.4286
805.7143
838.5715
857.1429
850.0000
815.7143
818.5715
908.5715
824.2857
798.5715
844.2857
834.2857
825.7143
812.8572
821.4286
808.5715
800.0000
837.1429
828.5715
878.5715
818.5715
808.5715
810.0000
792.8572
827.1429
865.7143
835.7143
854.2857
817.1429
817.1429
797.1429
804.2857
832.8572
820.0000
750.0000
807.1429
814.2857
861.4286
800.0000
798.5715
802.8572
815.7143
811.4286
781.4286
820.0000
822.8572
752.8572
825.7143
790.0000
812.8572
778.5715
837.1429
751.4286
864.2857
801.4286
870.0000
912.8572
901.4286
850.0000
912.8572
918.5715
880.0000
910.0000
927.1429
934.2857
865.7143
930.0000
902.8572
950.0000
941.4286
872.8572
911.4286
845.7143
847.1429
844.2857
880.0000
862.8572
852.8572
794.2857
781.4286
894.2857
855.7143
827.1429
870.0000
905.7143
870.0000
821.4286
847.1429
864.2857
837.1429
888.5715
884.2857
848.5715
942.8572
865.7143
857.1429
830.0000
865.7143
860.0000
805.7143
871.4286
851.4286
867.1429
807.1429
817.1429
901.4286
805.7143
825.7143
871.4286
758.5714
837.1429
798.5715
821.4286
830.0000
835.7143
878.5715
842.8572
807.1429
794.2857
834.2857
795.7143
817.1429
807.1429
860.0000

Full

Fe3p
1
65.0000
-0.2500
81
1752
1776
1764
1704
1815
1772
1740
1714
1715
1724
1704
1761
1721
1710
1671
1642
1655
1688
1641
1715
1773
1750
1803
1753
1777
1799
1719
1840
1813
1803
1810
1882
1794
1818
1769
1848
1727
1791
1640
1725
1691
1639
1747
1714
1703
1703
1782
1825
1895
1875
1946
2045
2135
2163
2381
2350
2547
2772
2874
3030
3219
3367
3614
3797
3714
3549
3302
2864
2436
2000
1456
1316
1069
960.0000
869.0000
895.0000
847.0000
882.0000
797.0000
846.0000
791.0000

File: 7B0303_3.asc
Full

C1s
1
295.0000
-0.1000
250
1048
1078
1069
1063
1089
1066
1052
1032
1041
1064
1071
1020
1060
1065
1035
1083
1094
1123
1054
1076
1023
1052
1057
1054
1091
1086
1052
1091
1055
1069
1061
1014
1053
1059
1053
998.0001
1041
1111
1057
1033
1096
1043
1093
1024
1047
1054
1064
1068
1003
1044
992.0001
1033
1064
1106
1092
1119
1033
1046
1066
1083
1006
1052
1016
1044
1040
1006
1021
1069
1031
1014
1005
1014
1024
1095
966.0001
1054
1055
1038
1023
1048
1050
1020
1015
1044
1049
1020
1093
1103
1041
1061
1076
1067
1050
1029
991.0001
1075
1061
1083
1041
1094
1019
1043
1014
1009
987.0001
1060
1015
1037
1060
1083
1019
1104
1051
1083
1030
1048
1094
1157
1113
1201
1244
1236
1260
1330
1332
1347
1348
1357
1310
1317
1269
1284
1309
1254
1240
1215
1222
1244
1295
1290
1357
1458
1453
1500
1610
1662
1682
1697
1784
1813
1841
1841
1993
2037
2155
2339
2499
2613
2828
3085
3259
3448
3401
3496
3310
3362
3088
2967
2564
2330
2061
1779
1540
1504
1293
1215
1142
1041
1050
1053
1027
1020
1063
1018
971.0001
1019
971.0001
1005
1033
978.0001
973.0001
1044
956.0001
1022
974.0001
1013
985.0001
1029
918.0001
956.0001
1008
1028
951.0001
1010
1028
984.0001
959.0001
1010
997.0001
924.0001
1019
1008
1001
1021
957.0001
949.0001
1039
952.0001
963.0001
960.0001
992.0001
1005
969.0001
1047
983.0001
998.0001
984.0001
1017
999.0001
990.0001
1024
1006
960.0001
964.0001
1003
950.0001
951.0001
966.0001
983.0001
958.0001
992.0001
988.0001
1008
963.0001
961.0001
997.0001
909.0001
992.0001
942.0001
933.0001

Full

O1s
1
535.0000
-0.1000
200
2616
2678
2668
2672
2600
2670
2656
2678
2716
2560
2624
2588
2626
2644
2610
2430
2792
2774
2560
2738
2638
2552
2508
2544
2554
2670
2542
2496
2692
2668
2524
2728
2766
2650
2696
2634
2704
2670
2556
2606
2748
2634
2594
2610
2494
2630
2562
2644
2460
2530
2512
2514
2596
2446
2592
2348
2504
2404
2494
2472
2476
2504
2452
2572
2386
2590
2710
2598
2642
2816
2808
2752
2828
3006
2946
3212
3048
3310
3388
3416
3654
3638
3824
3882
4208
4208
4318
4546
4858
5096
5308
5582
5962
6040
6640
6800
6982
7330
7616
7862
8138
8368
9458
10116
11358
12898
13934
15504
16882
17498
18344
18384
17692
16524
14912
13294
11474
9622
7884
6382
5406
4306
3598
3126
2734
2602
2342
2222
2156
2076
2070
2064
2124
2056
1904
1890
2018
1844
1932
2020
1844
2014
1820
1912
1866
1878
1848
1964
1880
1974
1914
1974
1932
1900
1906
1760
1792
1780
1744
1836
1834
1778
1894
1866
1860
1810
1846
1796
1896
1858
1760
1868
1996
1850
1678
1822
1838
1862
1864
1814
1872
1792
1876
1830
1874
1834
1972
1892
1800
1866
1858
1838
1760
1882
1846
1802
1812
1866
1888
1926

Full

Fe2p
1
-0.1000
7219.33
7231.33
7171.33
7186.67
7117.67
7095
7109.33
7082.67
7049.33
6976
7093.33
7031.33
7038.67
7047.67
7026
7020.67
7041.67
7162.67
7061.33
7138
7188
7131
7212.33
7206.67
7194.67
7304
7326
7341.33
7375.33
7384.33
7393
7428.33
7518.33
7520.33
7522.33
7491.67
7623
7692.33
7770
7635.33
7650
7579
7545
7525.33
7596.67
7485.33
7475.33
7496.67
7386.67
7323
7317.33
7367.33
7234.67
7303.33
7246.33
7378.67
7331.67
7299.33
7459.33
7426.67
7428.33
7456.33
7458.33
7446.33
7745.67
7692.67
7890.33
7883.33
8164.67
8221.33
8226
8397
8502.33
8589.67
8748.67
8844.33
8924.67
8954.67
9094.67
9145
9055.67
9102.33
9163.33
8994.67
8986.67
8811.67
8680.33
8543
8255.33
8024
7754
7559.33
7320
7042.33
7109
6996
6906.33
6914
6958.33
6989.67
6988
6993.33
7166.33
7093.33
7186.67
7170
7246.33
7274.33
7247.33
7212.33
7216
7105.33
7087
7062
6913.33
6837
6735
6687.33
6570
6548.67
6454
6473.67
6385.33
6329.67
6386.67
6335.33
6381.67
6397
6459
6492.67
6628.33
6669.33
6845.67
6951.67
7219
7278.67
7526.33
7754.33
7931.67
8079
8267.67
8491.33
8702
8976
9219.67
9347.33
9607.67
9763
10049.3
10216.3
10177
10155.7
9828.67
9233.33
8803
8180.33
7449
6792.67
5926
5224.67
4656.67
4324
4149
3985.33
3928
3885.33
3822.67
3815.33
3730.33
3786
3711.33
3735
3625
3650.33
3695.33
3692
3693.33
3679
3656.67
3676.67
3682.33
3651.67
3650.33
3700
3697.33
3677.67
3718.67
3659
3672.67
3606.33
3636
3702.67
3669
3654
3670
3684.67
3614.67
3690.33
3626
3689
3742.33

Full

Zn2p3
1
-0.1000
9456
9468
9586
9698
9633
9449
9508
9501
9440
9606
9461
9561
9607
9404
9728
9607
9668
9449
9655
9625
9591
9471
9636
9591
9594
9489
9469
9622
9726
9600
9625
9491
9600
9455
9546
9729
9406
9682
9746
9684
9524
9766
9527
9786
9872
9771
9908
9979
9931
9854
10019
10353
10613
11040
11325
11986
12491
13176
13504
13508
12803
12367
11466
10665
10551
10083
10059
9973
9600
9667
9759
9691
9376
9480
9604
9662
9562
9636
9601
9532
9430
9539
9363
9728
9549
9456
9424
9471
9305
9454
9382
9557
9454
9408
9288
9445
9414
9599
9402
9361
9420
9235
9215
9383
9460
9132
9151
9366
9501
9464
9174
9245
9305
9144
9456
9336
9440
9312
9298
9359
9313
9580
9160
9196
9318
9343
9134
9403
9318
9129
9313
9174
9304
9203
9143
9408
9334
9284
9478
9532
9249
9292
9237
9104
9469
9231
9248
9299
9232
9321
9186
9369
9341
9280
9281
9165
9151
9169
9381
9332
9196
9419
9488
9494
9407
9754
10131
10594
11398
12372
13498
14878
16547
17369
17671
16850
15299
13374
11835
10909
10350
10153
9781
9566
9487
9500
9423
9234
9290
9246
9352
9232
9303
9030
8991
9056
9177
9092
9219
9002
9112
9020
9184
9163
8965
9088
9147
8909
9023
9122
9132
9133
9062
9271
9178
9203
9318
9068
9174
9001
9055
9048
9119
9033
9160
9178

Full

Ag3d
1
375.0000
-0.1000
200
964.0000
1056
1040
974.0000
988.0000
990.0000
1048
922.0000
1020
1034
1052
976.0000
920.0000
1022
988.0000
1000
940.0000
1036
1022
1006
1004
1006
948.0000
976.0000
960.0000
984.0000
980.0000
952.0000
990.0000
954.0000
954.0000
1108
1014
948.0000
1002
1026
1020
918.0000
1026
930.0000
928.0000
998.0000
970.0000
936.0000
996.0000
1034
1056
980.0000
980.0000
1008
974.0000
1016
952.0000
1084
1102
1076
1272
1284
1312
1556
1684
1854
2070
2250
2452
2392
2630
2672
2830
2694
2516
2366
2236
2036
1778
1694
1484
1382
1200
1170
1154
1104
1028
1036
1056
958.0000
1056
1008
1024
942.0000
1024
932.0000
950.0000
956.0000
948.0000
1038
954.0000
1010
1006
918.0000
898.0000
940.0000
974.0000
966.0000
928.0000
942.0000
970.0000
866.0000
974.0000
964.0000
1034
982.0000
1136
1048
1080
1096
1232
1406
1580
1722
2008
2116
2434
2818
3056
3232
3338
3424
3430
3346
3260
3178
2680
2500
2110
1796
1628
1466
1204
1224
1166
1058
1064
934.0000
946.0000
922.0000
1016
896.0000
916.0000
976.0000
876.0000
874.0000
926.0000
880.0000
904.0000
878.0000
860.0000
864.0000
900.0000
820.0000
898.0000
954.0000
820.0000
882.0000
902.0000
780.0000
824.0000
856.0000
864.0000
904.0000
882.0000
924.0000
890.0000
864.0000
848.0000
762.0000
902.0000
862.0000
820.0000
898.0000
870.0000
890.0000
824.0000
900.0000
852.0000
858.0000
840.0000
896.0000
850.0000
864.0000
874.0000
894.0000
900.0000
904.0000
866.0000
812.0000
886.0000
882.0000
878.0000
816.0000

Full

Sn3d5
1
500.0000
-0.1000
200
1794
1776
1692
1738
1746
1794
1734
1714
1694
1796
1756
1742
1758
1804
1788
1796
1774
1748
1828
1774
1888
1750
1734
1758
1760
1724
1744
1760
1758
1838
1802
1826
1788
1852
1692
1750
1868
1830
1836
1972
1810
1942
1650
1768
1822
1806
1814
1912
1910
1720
1784
1756
1806
1750
1840
1826
1844
1728
1864
1838
2000
1846
1938
1870
1980
2020
2136
2150
2250
2288
2178
2184
2302
2538
2364
2422
2764
2678
2778
2836
2952
2890
3118
3158
3162
3052
3402
3318
3162
3414
3346
3078
3274
3000
3196
3046
3038
2872
2526
2556
2710
2452
2372
2354
2404
2232
2186
2208
2218
2040
2110
2090
2096
2076
2078
2146
2114
2092
2154
2152
2066
1970
2036
1922
1974
1906
1946
1834
1880
1788
1666
1682
1530
1544
1522
1482
1458
1452
1352
1324
1340
1334
1380
1218
1256
1262
1226
1316
1262
1190
1206
1176
1224
1182
1212
1150
1206
1212
1144
1256
1202
1170
1180
1104
1146
1140
1240
1190
1136
1200
1172
1278
1178
1222
1176
1094
1082
1204
1226
1206
1152
1246
1242
1102
1158
1138
1290
1192
1230
1106
1186
1168
1180
1168
1138
1208
1200
1182
1126
1108

Full

Si2p
1
105.0000
-0.1000
150
1114
1138
1110
1126
1192
1210
1068
1178
1060
1184
1138
1062
1132
1194
1124
1180
1086
1158
1194
1070
1096
1192
1114
1120
1116
1152
1160
1250
1148
1138
1152
1108
1218
1136
1118
1210
1140
1078
1072
1144
1158
998.0000
1124
1148
1136
1108
1172
1190
1132
1078
1106
1104
1160
1060
1138
1150
1094
1128
1070
1164
1034
1144
1066
1094
1060
1208
1158
1062
1074
1164
1160
1068
1210
1056
1132
1232
1130
1128
1160
1200
1138
1214
1194
1204
1212
1250
1222
1190
1238
1284
1202
1318
1228
1260
1284
1226
1278
1326
1262
1300
1306
1342
1234
1258
1204
1188
1396
1300
1324
1286
1232
1252
1154
1350
1372
1286
1210
1126
1240
1236
1272
1204
1164
1198
1090
1216
1132
1162
1190
1198
1138
1148
1074
1148
1088
1152
1156
1200
1110
1066
1180
1136
1210
1098
1132
1234
1208
1228
1274
1312

Full

Fe3p
1
60.0000
-0.1000
200
819.0000
809.0000
821.0000
807.0000
828.0000
864.0000
892.0000
876.0000
899.0000
888.0000
897.0000
838.0000
909.0000
898.0000
924.0000
877.0000
914.0000
989.0000
891.0000
887.0000
883.0000
875.0000
934.0000
934.0000
835.0000
878.0000
838.0000
885.0000
857.0000
871.0000
844.0000
865.0000
871.0000
851.0000
827.0000
812.0000
843.0000
816.0000
821.0000
754.0000
897.0000
848.0000
806.0000
858.0000
826.0000
823.0000
828.0000
778.0000
782.0000
842.0000
823.0000
815.0000
828.0000
817.0000
889.0000
829.0000
846.0000
815.0000
802.0000
884.0000
854.0000
884.0000
933.0000
897.0000
859.0000
948.0000
891.0000
966.0000
966.0000
896.0000
933.0000
965.0000
995.0000
1017
1064
1046
1104
1040
1164
1190
1209
1219
1330
1332
1336
1482
1435
1446
1615
1614
1776
1786
1837
1972
1963
2103
2124
2203
2099
2187
2130
2187
2186
2056
2018
1969
1802
1724
1579
1478
1340
1220
1115
979.0000
957.0000
821.0000
744.0000
652.0000
597.0000
547.0000
542.0000
505.0000
408.0000
481.0000
440.0000
430.0000
383.0000
383.0000
366.0000
377.0000
367.0000
333.0000
361.0000
378.0000
324.0000
321.0000
353.0000
319.0000
313.0000
334.0000
341.0000
313.0000
321.0000
307.0000
302.0000
340.0000
325.0000
298.0000
325.0000
319.0000
330.0000
311.0000
288.0000
275.0000
328.0000
288.0000
322.0000
298.0000
320.0000
297.0000
299.0000
293.0000
316.0000
303.0000
314.0000
300.0000
310.0000
327.0000
284.0000
310.0000
302.0000
294.0000
321.0000
302.0000
299.0000
337.0000
293.0000
322.0000
286.0000
316.0000
266.0000
290.0000
300.0000
301.0000
304.0000
307.0000
286.0000
292.0000
281.0000
287.0000
308.0000
263.0000
288.0000
286.0000
298.0000
287.0000
286.0000
306.0000
246.0000
325.0000