Folder: thesis/assets/data/P03/xrd

Note: assets/README.md
# Preamble notes

## Cross-references

For the sake of contrast and to guide the reader, cross-refs to objects inside
the thesis proper always use long-form (*figure 1*, *equation 2*)
whereas cross-refs to objects in our attached papers use the abbreviated form
(*fig. 4*) in addition to using small-caps and being trailed by the paper
number.
This is configured using `cleveref` macros (see `./assets/preamble/cleveref-settings.Rnw`).

+ https://links.solarchemist.se/shaare/GuXgNw


## Keeping non-text outside the main Rnw files, as much as possible

Stuff like `\includegraphics`, info boxes, etc.

I really need the files that I write in to be primarily text, not R code and
other stuff that distracts from writing.

So, I've decided to put each figure/box etc. into its own file inside `assets/aux/`.
They are included from their place in the parent file using R `child` chunks
(just in case the included file contains any R code).

Side-note for writing in VSCodium:
the LaTeX Workshop extension of VSCodium has a nice feature that allows you
to follow a path inside `\input{...}` just by placing the cursor on it
and pressing `F12`.
To make use of this time-saving feature, I've put a commented-out `input` line
next to each Rnw child chunk.

**Note** If you are working in VSCode Server, this `F12` shortcut only works when
running the browser in "app" mode. In a regular (non-appified) browser window
`F12` (in Chrome, Chromium and Firefox) simply opens the browser's developer view.


## Keeping `\section` commands visible in the VSCodium "Outline"

It is very useful and time-saving to navigate using the Outline functionality
in the VSCodium editor. But the Outline only shows headers that are part of
the currently open file (it does not detect nor follow Rnw children).

But it is also not workable to split the isolated R environments we have created
for each manuscript, and that precludes any way to natively include the section
commands.
This has become an issue now that I've decided to split the Results chapter
into more individual sections (rather than one section == one manuscript).

But I found a work-around by repeating the `\section{...}` commands *inside*
the Rnw chunk, as R comments.
This way, the VSCodium logic picks them up (it ignores commented out LaTeX
code, but luckily it does not check for R's comment character) and it does not
interfere with our R code.

Only downside is that we need to manually maintain correspondence between
those commented out section commands and the actual ones inside each manuscript's
`*-text.Rnw` file.
And one more thing, the R chunk in question will produce a warning in the knitr
output saying
```
In call_block(x) :
  The chunk ... has the 'child' option, and this code chunk must be empty. Its code will be ignored.
```
But I can live with that.



## LaTeX commands to keep in mind and use

| Command         | Example/output   | Defined by...             |
|-----------------|------------------|---------------------------

File: 806-7B0407.uxd
; E:\Taha\806-7B0407\gixrd-FeO-001.raw(Diffrac Plus V1.01 file) converted by XCH V1.0
_FILEVERSION=2
_SAMPLE='7B0407'
_SITE=' ngstr mlab'
_USER='Materialkemi'
_SAMPLE_CHANGER_CODE=0
_ATTACHMENTS_CODE=0
_GONIOMETER_RADIUS=217.5
_FIXED_DIVSLIT=0.150000
_FIXED_SAMPLESLIT=1.000000
_SOLLER_SLITS='Y'
_FIXED_DETSLIT=1.000000
_MONOCHROMATOR=0
; None
_THIN_FILM='N'
_BETA_FILTER='N'
_FIXED_ANTISLIT=0.150000
_ANALYZER_CODE=0
; None
_DATEMEASURED='06-Aug-2011 15:55:13'
_RUNTIME=14257.5
_WL_UNIT='A'
_WL1=1.540600
_WL2=1.544390
_WL3=1.392220
_WLRATIO=0.500000
_ANODE='Cu'
; (Data for Range number 1)
_DRIVE='2THETA'
_STEPTIME=0.250000
_STEPSIZE=0.050000
_STEPMODE='C'
_START=25
_THETA=0.050000
_2THETA=25
_KHI=0.000000
_PHI=0.000000
_X=0.000000
_Y=0.000000
_Z=0.000000
_DIVERGENCE=1.000000
_ANTISCATTER=1.000000
_DETECTOR=1
; S.C.
_HV=800
_GAIN=2.000000
_LLD=0.700000
_ULD=3.000000
_DETECTORSLIT='unkn'
_AUX1=0.000000
_AUX2=0.000000
_AUX3=0.000000
_TIMESTARTED=31
_TEMPERATURE=26.84
_TEMP_RATE=0.000000
_TEMP_DELAY=0.000000
_KV=45
_MA=40
_RANGE_WL=1.540600
_3DPLANE=0
_2THETACOUNTS
25.0000	60
25.3500	52
25.7000	56
26.0500	56
26.4000	67
26.7500	52
27.1000	51
27.4500	57
27.8000	38
28.1500	61
28.5000	57
28.8500	65
29.2000	57
29.5500	57
29.9000	48
30.2500	49
30.6000	47
30.9500	39
31.3000	35
31.6500	56
32.0000	53
32.3500	34
32.7000	28
33.0500	33
33.4000	39
33.7500	57
34.1000	67
34.4500	50
34.8000	56
35.1500	51
35.5000	63
35.8500	46
36.2000	67
36.5500	60
36.9000	38
37.2500	29
37.6000	42
37.9500	86
38.3000	48
38.6500	30
39.0000	21
39.3500	25
39.7000	27
40.0500	19
40.4000	29
40.7500	18
41.1000	36
41.4500	30
41.8000	19
42.1500	17
42.5000	16
42.8500	27
43.2000	22
43.5500	21
43.9000	26
44.2500	22
44.6000	20
44.9500	16
45.3000	25
45.6500	23
46.0000	23
46.3500	20
46.7000	20
47.0500	15
47.4000	22
47.7500	32
48.1000	29
48.4500	23
48.8000	18
49.1500	17
49.5000	17
49.8500	16
50.2000	24
50.5500	25
50.9000	25
51.2500	29
51.6000	51
51.9500	51
52.3000	29
52.6500	22
53.0000	15
53.3500	20
53.7000	19
54.0500	27
54.4000	21
54.7500	24
55.1000	29
55.4500	13
55.8000	26
56.1500	24
56.5000	23
56.8500	29
57.2000	19
57.5500	25
57.9000	13
58.2500	15
58.6000	20
58.9500	18
59.3000	16
59.6500	12
60.0000	17
60.3500	16
60.7000	10
61.0500	19
61.4000	27
61.7500	21
62.1000	37
62.4500	17
62.8000	25
63.1500	24
63.5000	21
63.8500	14
64.2000	17
64.5500	18
64.9000	25
65.2500	16
65.6000	24
65.9500	28
66.3000	28
66.6500	14
67.0000	17
67.3500	14
67.7000	11
68.0500	19
68.4000	27
68.7500	17
69.1000	15
69.4500	20
69.8000	14
70.1500	11
70.5000	7
70.8500	20
71.2000	17
71.5500	8
71.9000	9
72.2500	22
72.6000	14
72.9500	9
73.3000	17
73.6500	14
74.0000	14
74.3500	14
74.7000	9
75.0500	20
75.4000	13
75.7500	16
76.1000	15
76.4500	10
76.8000	17
77.1500	11
77.5000	10
77.8500	10
78.2000	15
78.5500	24
78.9000	31
79.2500	13
79.6000	6
79.9500	8
80.3000	18
80.6500	16
81.0000	15
81.3500	12
81.7000	14
82.0500	12
82.4000	15
82.7500	12
83.1000	10
83.4500	11
83.8000	15
84.1500	9
84.5000	12
84.8500	5
85.2000	12
85.5500	12
85.9000	17
86.2500	11
86.6000	9
86.9500	11
87.3000	17
87.6500	17
88.0000	12
88.3500	17
88.7000	7
89.0500	14
89.4000	8
89.7500	17
90.1000	11
90.4500	11
90.8000	22
91.1500	15
91.5000	3
91.8500	5
92.2000	4
92.5500	10
92.9000	14
93.2500	14
93.6000	16
93.9500	13
94.3000	13
94.6500	12
95.0000	11
95.3500	12
95.7000	16
96.0500	15
96.4000	11
96.7500	7
97.1000	10
97.4500	17
97.8000	12
98.1500	13
98.5000	10
98.8500	9
99.2000	10
99.5500	10
99.9000	7
100.2500	9
100.6000	6
100.9500	13
101.3000	5
101.6500	8
102.0000	8
102.3500	10
102.7000	12
103.0500	16
103.4000	9
103.7500	10
104.1000	11
104.4500	11
104.8000	13
105.1500	11
105.5000	13
105.8500	15
106.2000	6
106.5500	8
106.9000	10
107.2500	13
107.6000	10
107.9500	14
108.3000	13
108.6500	22
109.0000	9
109.3500	13
109.7000	16
110.0500	12
110.4000	12
110.7500	13
111.1000	16
111.4500	9
111.8000	13
112.1500	10
112.5000	12
112.8500	14
113.2000	7
113.5500	19
113.9000	10
114.2500	11
114.6000	23
114.9500	7
115.3000	16
115.6500	6
116.0000	13
116.3500	16
116.7000	5
117.0500	12
117.4000	13
117.7500	7
118.1000	12
118.4500	10
118.8000	11
119.1500	7
119.5000	10
119.8500	15
120.0000	14
; (Data for Range number 2)
_DRIVE='2THETA'
_STEPTIME=0.250000
_STEPSIZE=0.050000
_STEPMODE='C'
_START=25
_THETA=0.100000
_2THETA=25
_KHI=0.000000
_PHI=0.000000
_X=0.000000
_Y=0.000000
_Z=0.000000
_DIVERGENCE=1.000000
_ANTISCATTER=1.000000
_DETECTOR=1
; S.C.
_HV=800
_GAIN=2.000000
_LLD=0.700000
_ULD=3.000000
_DETECTORSLIT='unkn'
_AUX1=0.000000
_AUX2=0.000000
_AUX3=0.000000
_TIMESTARTED=436
_TEMPERATURE=26.84
_TEMP_RATE=0.000000
_TEMP_DELAY=0.000000
_KV=45
_MA=40
_RANGE_WL=1.540600
_3DPLANE=0
_2THETACOUNTS
25.0000	68
25.3500	67
25.7000	53
26.0500	50
26.4000	61
26.7500	66
27.1000	47
27.4500	50
27.8000	46
28.1500	35
28.5000	50
28.8500	41
29.2000	53
29.5500	51
29.9000	51
30.2500	42
30.6000	49
30.9500	43
31.3000	42
31.6500	47
32.0000	37
32.3500	34
32.7000	27
33.0500	30
33.4000	42
33.7500	70
34.1000	60
34.4500	67
34.8000	59
35.1500	50
35.5000	46
35.8500	52
36.2000	67
36.5500	63
36.9000	36
37.2500	37
37.6000	40
37.9500	87
38.3000	43
38.6500	30
39.0000	31
39.3500	19
39.7000	20
40.0500	23
40.4000	23
40.7500	23
41.1000	26
41.4500	14
41.8000	23
42.1500	20
42.5000	22
42.8500	23
43.2000	23
43.5500	25
43.9000	24
44.2500	16
44.6000	20
44.9500	19
45.3000	15
45.6500	19
46.0000	18
46.3500	9
46.7000	15
47.0500	21
47.4000	19
47.7500	29
48.1000	16
48.4500	21
48.8000	14
49.1500	27
49.5000	16
49.8500	11
50.2000	18
50.5500	24
50.9000	22
51.2500	21
51.6000	57
51.9500	73
52.3000	17
52.6500	20
53.0000	21
53.3500	20
53.7000	19
54.0500	19
54.4000	15
54.7500	20
55.1000	26
55.4500	21
55.8000	18
56.1500	14
56.5000	30
56.8500	22
57.2000	25
57.5500	17
57.9000	22
58.2500	19
58.6000	12
58.9500	25
59.3000	22
59.6500	15
60.0000	11
60.3500	13
60.7000	13
61.0500	22
61.4000	18
61.7500	36
62.1000	36
62.4500	11
62.8000	28
63.1500	30
63.5000	22
63.8500	17
64.2000	24
64.5500	16
64.9000	18
65.2500	10
65.6000	18
65.9500	19
66.3000	19
66.6500	14
67.0000	10
67.3500	14
67.7000	12
68.0500	17
68.4000	19
68.7500	15
69.1000	15
69.4500	12
69.8000	11
70.1500	17
70.5000	13
70.8500	12
71.2000	17
71.5500	11
71.9000	14
72.2500	11
72.6000	17
72.9500	17
73.3000	17
73.6500	15
74.0000	9
74.3500	7
74.7000	14
75.0500	18
75.4000	10
75.7500	17
76.1000	10
76.4500	15
76.8000	9
77.1500	14
77.5000	20
77.8500	10
78.2000	15
78.5500	19
78.9000	26
79.2500	11
79.6000	13
79.9500	16
80.3000	9
80.6500	12
81.0000	12
81.3500	20
81.7000	12
82.0500	12
82.4000	16
82.7500	8
83.1000	13
83.4500	18
83.8000	13
84.1500	15
84.5000	15
84.8500	11
85.2000	7
85.5500	12
85.9000	19
86.2500	12
86.6000	11
86.9500	15
87.3000	13
87.6500	20
88.0000	18
88.3500	11
88.7000	12
89.0500	14
89.4000	12
89.7500	27
90.1000	16
90.4500	14
90.8000	16
91.1500	12
91.5000	17
91.8500	12
92.2000	8
92.5500	10
92.9000	13
93.2500	22
93.6000	17
93.9500	9
94.3000	9
94.6500	8
95.0000	16
95.3500	14
95.7000	12
96.0500	11
96.4000	21
96.7500	15
97.1000	13
97.4500	8
97.8000	13
98.1500	8
98.5000	4
98.8500	16
99.2000	7
99.5500	24
99.9000	11
100.2500	10
100.6000	11
100.9500	14
101.3000	11
101.6500	11
102.0000	8
102.3500	10
102.7000	9
103.0500	9
103.4000	9
103.7500	15
104.1000	5
104.4500	14
104.8000	13
105.1500	13
105.5000	13
105.8500	19
106.2000	9
106.5500	13
106.9000	11
107.2500	11
107.6000	14
107.9500	11
108.3000	13
108.6500	15
109.0000	12
109.3500	16
109.7000	12
110.0500	14
110.4000	19
110.7500	15
111.1000	11
111.4500	9
111.8000	14
112.1500	11
112.5000	17
112.8500	17
113.2000	12
113.5500	13
113.9000	7
114.2500	16
114.6000	18
114.9500	9
115.3000	12
115.6500	16
116.0000	29
116.3500	28
116.7000	19
117.0500	25
117.4000	16
117.7500	16
118.1000	16
118.4500	16
118.8000	10
119.1500	10
119.5000	9
119.8500	13
120.0000	5
; (Data for Range number 3)
_DRIVE='2THETA'
_STEPTIME=0.250000
_STEPSIZE=0.050000
_STEPMODE='C'
_START=25
_THETA=0.150000
_2THETA=25
_KHI=0.000000
_PHI=0.000000
_X=0.000000
_Y=0.000000
_Z=0.000000
_DIVERGENCE=1.000000
_ANTISCATTER=1.000000
_DETECTOR=1
; S.C.
_HV=800
_GAIN=2.000000
_LLD=0.700000
_ULD=3.000000
_DETECTORSLIT='unkn'
_AUX1=0.000000
_AUX2=0.000000
_AUX3=0.000000
_TIMESTARTED=842
_TEMPERATURE=26.84
_TEMP_RATE=0.000000
_TEMP_DELAY=0.000000
_KV=45
_MA=40
_RANGE_WL=1.540600
_3DPLANE=0
_2THETACOUNTS
25.0000	66
25.3500	61
25.7000	43
26.0500	61
26.4000	49
26.7500	55
27.1000	64
27.4500	58
27.8000	49
28.1500	54
28.5000	45
28.8500	50
29.2000	45
29.5500	49
29.9000	51
30.2500	54
30.6000	51
30.9500	49
31.3000	37
31.6500	45
32.0000	51
32.3500	46
32.7000	33
33.0500	39
33.4000	41
33.7500	90
34.1000	48
34.4500	56
34.8000	50
35.1500	47
35.5000	41
35.8500	32
36.2000	58
36.5500	65
36.9000	39
37.2500	46
37.6000	43
37.9500	89
38.3000	26
38.6500	28
39.0000	22
39.3500	28
39.7000	21
40.0500	29
40.4000	20
40.7500	29
41.1000	16
41.4500	20
41.8000	20
42.1500	23
42.5000	20
42.8500	21
43.2000	26
43.5500	25
43.9000	21
44.2500	24
44.6000	17
44.9500	21
45.3000	13
45.6500	17
46.0000	15
46.3500	22
46.7000	28
47.0500	13
47.4000	26
47.7500	24
48.1000	20
48.4500	12
48.8000	15
49.1500	15
49.5000	20
49.8500	19
50.2000	11
50.5500	15
50.9000	16
51.2500	14
51.6000	62
51.9500	79
52.3000	22
52.6500	23
53.0000	19
53.3500	15
53.7000	25
54.0500	23
54.4000	20
54.7500	33
55.1000	20
55.4500	16
55.8000	17
56.1500	12
56.5000	20
56.8500	30
57.2000	26
57.5500	16
57.9000	20
58.2500	14
58.6000	21
58.9500	15
59.3000	20
59.6500	18
60.0000	21
60.3500	14
60.7000	18
61.0500	17
61.4000	19
61.7500	40
62.1000	28
62.4500	33
62.8000	30
63.1500	37
63.5000	25
63.8500	16
64.2000	19
64.5500	17
64.9000	24
65.2500	17
65.6000	21
65.9500	33
66.3000	22
66.6500	18
67.0000	20
67.3500	19
67.7000	20
68.0500	22
68.4000	20
68.7500	20
69.1000	20
69.4500	6
69.8000	19
70.1500	17
70.5000	10
70.8500	10
71.2000	15
71.5500	15
71.9000	14
72.2500	11
72.6000	16
72.9500	10
73.3000	16
73.6500	11
74.0000	11
74.3500	11
74.7000	14
75.0500	16
75.4000	19
75.7500	12
76.1000	9
76.4500	14
76.8000	11
77.1500	21
77.5000	16
77.8500	14
78.2000	13
78.5500	20
78.9000	34
79.2500	10
79.6000	14
79.9500	12
80.3000	15
80.6500	15
81.0000	11
81.3500	13
81.7000	8
82.0500	11
82.4000	11
82.7500	10
83.1000	13
83.4500	16
83.8000	20
84.1500	13
84.5000	12
84.8500	13
85.2000	13
85.5500	10
85.9000	17
86.2500	10
86.6000	18
86.9500	14
87.3000	17
87.6500	16
88.0000	19
88.3500	12
88.7000	12
89.0500	9
89.4000	18
89.7500	14
90.1000	16
90.4500	12
90.8000	23
91.1500	16
91.5000	13
91.8500	8
92.2000	13
92.5500	10
92.9000	9
93.2500	19
93.6000	16
93.9500	19
94.3000	14
94.6500	8
95.0000	11
95.3500	11
95.7000	16
96.0500	16
96.4000	13
96.7500	18
97.1000	8
97.4500	11
97.8000	7
98.1500	10
98.5000	9
98.8500	8
99.2000	13
99.5500	8
99.9000	13
100.2500	16
100.6000	15
100.9500	5
101.3000	9
101.6500	7
102.0000	15
102.3500	8
102.7000	14
103.0500	9
103.4000	11
103.7500	9
104.1000	9
104.4500	13
104.8000	7
105.1500	16
105.5000	12
105.8500	9
106.2000	16
106.5500	8
106.9000	11
107.2500	12
107.6000	11
107.9500	13
108.3000	14
108.6500	20
109.0000	18
109.3500	19
109.7000	16
110.0500	12
110.4000	13
110.7500	11
111.1000	16
111.4500	12
111.8000	9
112.1500	10
112.5000	11
112.8500	17
113.2000	15
113.5500	10
113.9000	12
114.2500	14
114.6000	12
114.9500	22
115.3000	25
115.6500	19
116.0000	22
116.3500	22
116.7000	18
117.0500	16
117.4000	20
117.7500	14
118.1000	11
118.4500	11
118.8000	10
119.1500	4
119.5000	10
119.8500	8
120.0000	11
; (Data for Range number 4)
_DRIVE='2THETA'
_STEPTIME=0.250000
_STEPSIZE=0.050000
_STEPMODE='C'
_START=25
_THETA=0.200000
_2THETA=25
_KHI=0.000000
_PHI=0.000000
_X=0.000000
_Y=0.000000
_Z=0.000000
_DIVERGENCE=1.000000
_ANTISCATTER=1.000000
_DETECTOR=1
; S.C.
_HV=800
_GAIN=2.000000
_LLD=0.700000
_ULD=3.000000
_DETECTORSLIT='unkn'
_AUX1=0.000000
_AUX2=0.000000
_AUX3=0.000000
_TIMESTARTED=1248
_TEMPERATURE=26.84
_TEMP_RATE=0.000000
_TEMP_DELAY=0.000000
_KV=45
_MA=40
_RANGE_WL=1.540600
_3DPLANE=0
_2THETACOUNTS
25.0000	54
25.3500	53
25.7000	54
26.0500	57
26.4000	69
26.7500	70
27.1000	56
27.4500	44
27.8000	43
28.1500	51
28.5000	40
28.8500	55
29.2000	36
29.5500	63
29.9000	43
30.2500	51
30.6000	45
30.9500	41
31.3000	40
31.6500	59
32.0000	62
32.3500	41
32.7000	38
33.0500	45
33.4000	49
33.7500	77
34.1000	58
34.4500	55
34.8000	55
35.1500	50
35.5000	37
35.8500	42
36.2000	63
36.5500	47
36.9000	34
37.2500	28
37.6000	64
37.9500	88
38.3000	45
38.6500	26
39.0000	29
39.3500	19
39.7000	25
40.0500	16
40.4000	20
40.7500	31
41.1000	13
41.4500	25
41.8000	17
42.1500	21
42.5000	27
42.8500	25
43.2000	18
43.5500	25
43.9000	21
44.2500	31
44.6000	21
44.9500	24
45.3000	21
45.6500	19
46.0000	20
46.3500	13
46.7000	17
47.0500	15
47.4000	20
47.7500	24
48.1000	22
48.4500	24
48.8000	12
49.1500	18
49.5000	29
49.8500	18
50.2000	17
50.5500	17
50.9000	18
51.2500	22
51.6000	89
51.9500	76
52.3000	26
52.6500	17
53.0000	22
53.3500	15
53.7000	16
54.0500	21
54.4000	23
54.7500	23
55.1000	24
55.4500	18
55.8000	26
56.1500	17
56.5000	24
56.8500	27
57.2000	18
57.5500	17
57.9000	16
58.2500	17
58.6000	13
58.9500	17
59.3000	12
59.6500	12
60.0000	12
60.3500	10
60.7000	21
61.0500	12
61.4000	18
61.7500	38
62.1000	36
62.4500	25
62.8000	26
63.1500	29
63.5000	20
63.8500	17
64.2000	19
64.5500	15
64.9000	19
65.2500	17
65.6000	19
65.9500	32
66.3000	25
66.6500	14
67.0000	13
67.3500	15
67.7000	13
68.0500	20
68.4000	23
68.7500	14
69.1000	18
69.4500	6
69.8000	12
70.1500	18
70.5000	18
70.8500	19
71.2000	23
71.5500	12
71.9000	18
72.2500	8
72.6000	14
72.9500	11
73.3000	14
73.6500	15
74.0000	19
74.3500	14
74.7000	15
75.0500	12
75.4000	11
75.7500	11
76.1000	9
76.4500	12
76.8000	22
77.1500	17
77.5000	19
77.8500	12
78.2000	9
78.5500	28
78.9000	24
79.2500	16
79.6000	12
79.9500	8
80.3000	10
80.6500	8
81.0000	15
81.3500	11
81.7000	16
82.0500	9
82.4000	17
82.7500	19
83.1000	11
83.4500	20
83.8000	21
84.1500	9
84.5000	11
84.8500	11
85.2000	11
85.5500	17
85.9000	9
86.2500	22
86.6000	13
86.9500	19
87.3000	17
87.6500	19
88.0000	17
88.3500	5
88.7000	17
89.0500	9
89.4000	13
89.7500	23
90.1000	21
90.4500	19
90.8000	24
91.1500	18
91.5000	17
91.8500	10
92.2000	12
92.5500	10
92.9000	14
93.2500	12
93.6000	15
93.9500	9
94.3000	12
94.6500	8
95.0000	13
95.3500	12
95.7000	14
96.0500	11
96.4000	14
96.7500	10
97.1000	5
97.4500	10
97.8000	7
98.1500	9
98.5000	8
98.8500	11
99.2000	12
99.5500	3
99.9000	11
100.2500	9
100.6000	9
100.9500	13
101.3000	17
101.6500	10
102.0000	14
102.3500	7
102.7000	19
103.0500	8
103.4000	11
103.7500	14
104.1000	15
104.4500	18
104.8000	9
105.1500	15
105.5000	11
105.8500	10
106.2000	7
106.5500	12
106.9000	8
107.2500	12
107.6000	17
107.9500	15
108.3000	22
108.6500	10
109.0000	9
109.3500	8
109.7000	18
110.0500	14
110.4000	12
110.7500	14
111.1000	8
111.4500	9
111.8000	17
112.1500	15
112.5000	9
112.8500	12
113.2000	13
113.5500	14
113.9000	11
114.2500	12
114.6000	8
114.9500	6
115.3000	16
115.6500	15
116.0000	19
116.3500	20
116.7000	25
117.0500	12
117.4000	10
117.7500	15
118.1000	12
118.4500	6
118.8000	13
119.1500	12
119.5000	11
119.8500	14
120.0000	17
; (Data for Range number 6)
_DRIVE='2THETA'
_STEPTIME=0.250000
_STEPSIZE=0.050000
_STEPMODE='C'
_START=25
_THETA=0.250000
_2THETA=25
_KHI=0.000000
_PHI=0.000000
_X=0.000000
_Y=0.000000
_Z=0.000000
_DIVERGENCE=1.000000
_ANTISCATTER=1.000000
_DETECTOR=1
; S.C.
_HV=800
_GAIN=2.000000
_LLD=0.700000
_ULD=3.000000
_DETECTORSLIT='unkn'
_AUX1=0.000000
_AUX2=0.000000
_AUX3=0.000000
_TIMESTARTED=2061
_TEMPERATURE=26.84
_TEMP_RATE=0.000000
_TEMP_DELAY=0.000000
_KV=45
_MA=40
_RANGE_WL=1.540600
_3DPLANE=0
_2THETACOUNTS
25.0000	52
25.3500	61
25.7000	53
26.0500	51
26.4000	60
26.7500	73
27.1000	55
27.4500	59
27.8000	37
28.1500	61
28.5000	51
28.8500	45
29.2000	46
29.5500	52
29.9000	57
30.2500	46
30.6000	36
30.9500	35
31.3000	52
31.6500	35
32.0000	43
32.3500	39
32.7000	32
33.0500	35
33.4000	44
33.7500	105
34.1000	56
34.4500	68
34.8000	58
35.1500	56
35.5000	63
35.8500	36
36.2000	63
36.5500	51
36.9000	37
37.2500	34
37.6000	56
37.9500	131
38.3000	54
38.6500	20
39.0000	34
39.3500	20
39.7000	20
40.0500	26
40.4000	23
40.7500	23
41.1000	22
41.4500	23
41.8000	26
42.1500	23
42.5000	16
42.8500	27
43.2000	22
43.5500	20
43.9000	17
44.2500	14
44.6000	24
44.9500	15
45.3000	13
45.6500	25
46.0000	20
46.3500	21
46.7000	23
47.0500	21
47.4000	28
47.7500	33
48.1000	33
48.4500	13
48.8000	22
49.1500	25
49.5000	17
49.8500	16
50.2000	23
50.5500	23
50.9000	17
51.2500	24
51.6000	106
51.9500	75
52.3000	31
52.6500	20
53.0000	22
53.3500	10
53.7000	23
54.0500	23
54.4000	24
54.7500	44
55.1000	21
55.4500	22
55.8000	18
56.1500	16
56.5000	19
56.8500	30
57.2000	28
57.5500	16
57.9000	19
58.2500	15
58.6000	13
58.9500	14
59.3000	17
59.6500	17
60.0000	26
60.3500	22
60.7000	24
61.0500	14
61.4000	18
61.7500	45
62.1000	43
62.4500	27
62.8000	18
63.1500	36
63.5000	28
63.8500	19
64.2000	9
64.5500	23
64.9000	17
65.2500	16
65.6000	17
65.9500	23
66.3000	20
66.6500	13
67.0000	10
67.3500	10
67.7000	23
68.0500	11
68.4000	16
68.7500	13
69.1000	20
69.4500	10
69.8000	19
70.1500	5
70.5000	11
70.8500	23
71.2000	11
71.5500	20
71.9000	21
72.2500	14
72.6000	16
72.9500	19
73.3000	15
73.6500	16
74.0000	14
74.3500	14
74.7000	22
75.0500	16
75.4000	10
75.7500	15
76.1000	6
76.4500	5
76.8000	13
77.1500	19
77.5000	8
77.8500	13
78.2000	13
78.5500	26
78.9000	28
79.2500	20
79.6000	17
79.9500	10
80.3000	8
80.6500	12
81.0000	9
81.3500	18
81.7000	14
82.0500	14
82.4000	11
82.7500	12
83.1000	9
83.4500	14
83.8000	24
84.1500	11
84.5000	17
84.8500	15
85.2000	12
85.5500	10
85.9000	12
86.2500	13
86.6000	11
86.9500	17
87.3000	18
87.6500	14
88.0000	12
88.3500	10
88.7000	9
89.0500	14
89.4000	13
89.7500	24
90.1000	28
90.4500	16
90.8000	14
91.1500	23
[...]
105.6000	6
105.7000	7
105.8000	2
105.9000	6
106.0000	7
106.1000	8
106.2000	6
106.3000	6
106.4000	12
106.5000	7
106.6000	7
106.7000	9
106.8000	11
106.9000	7
107.0000	5
107.1000	10
107.2000	7
107.3000	13
107.4000	9
107.5000	13
107.6000	11
107.7000	13
107.8000	10
107.9000	5
108.0000	9
108.1000	5
108.2000	14
108.3000	8
108.4000	4
108.5000	8
108.6000	12
108.7000	7
108.8000	5
108.9000	7
109.0000	11
109.1000	7
109.2000	10
109.3000	10
109.4000	5
109.5000	8
109.6000	5
109.7000	9
109.8000	9
109.9000	6
110.0000	8
110.1000	10
110.2000	12
110.3000	6
110.4000	13
110.5000	10
110.6000	17
110.7000	12
110.8000	15
110.9000	8
111.0000	18
111.1000	13
111.2000	16
111.3000	12
111.4000	16
111.5000	17
111.6000	11
111.7000	16
111.8000	9
111.9000	11
112.0000	12
112.1000	7
112.2000	12
112.3000	11
112.4000	13
112.5000	11
112.6000	18
112.7000	14
112.8000	13
112.9000	12
113.0000	10
113.1000	12
113.2000	12
113.3000	20
113.4000	14
113.5000	10
113.6000	15
113.7000	12
113.8000	13
113.9000	17
114.0000	16
114.1000	23
114.2000	12
114.3000	17
114.4000	19
114.5000	22
114.6000	13
114.7000	16
114.8000	17
114.9000	19
115.0000	12
115.1000	26
115.2000	10
115.3000	12
115.4000	16
115.5000	19
115.6000	18
115.7000	22
115.8000	7
115.9000	16
116.0000	18
116.1000	20
116.2000	15
116.3000	14
116.4000	22
116.5000	18
116.6000	14
116.7000	20
116.8000	13
116.9000	16
117.0000	20
117.1000	16
117.2000	13
117.3000	14
117.4000	12
117.5000	14
117.6000	18
117.7000	15
117.8000	16
117.9000	17
118.0000	17
118.1000	17
118.2000	20
118.3000	17
118.4000	14
118.5000	11
118.6000	15
118.7000	20
118.8000	20
118.9000	12
119.0000	13
119.1000	16
119.2000	19
119.3000	19
119.4000	16
119.5000	25
119.6000	17
119.7000	13
119.8000	20
119.9000	20
120.0000	19
; (Data for Range number 29)
_DRIVE='2THETA'
_STEPTIME=0.250000
_STEPSIZE=0.050000
_STEPMODE='C'
_START=25
_THETA=14
_2THETA=25
_KHI=0.000000
_PHI=0.000000
_X=0.000000
_Y=0.000000
_Z=0.000000
_DIVERGENCE=1.000000
_ANTISCATTER=1.000000
_DETECTOR=1
; S.C.
_HV=800
_GAIN=2.000000
_LLD=0.700000
_ULD=3.000000
_DETECTORSLIT='unkn'
_AUX1=0.000000
_AUX2=0.000000
_AUX3=0.000000
_TIMESTARTED=11401
_TEMPERATURE=26.84
_TEMP_RATE=0.000000
_TEMP_DELAY=0.000000
_KV=45
_MA=40
_RANGE_WL=1.540600
_3DPLANE=0
_2THETACOUNTS
25.0000	42
25.3500	31
25.7000	22
26.0500	37
26.4000	25
26.7500	25
27.1000	34
27.4500	30
27.8000	29
28.1500	29
28.5000	26
28.8500	35
29.2000	23
29.5500	17
29.9000	24
30.2500	24
30.6000	22
30.9500	14
31.3000	20
31.6500	21
32.0000	23
32.3500	16
32.7000	17
33.0500	24
33.4000	19
33.7500	13
34.1000	22
34.4500	17
34.8000	10
35.1500	13
35.5000	12
35.8500	16
36.2000	10
36.5500	20
36.9000	16
37.2500	9
37.6000	12
37.9500	15
38.3000	12
38.6500	13
39.0000	11
39.3500	13
39.7000	8
40.0500	11
40.4000	18
40.7500	9
41.1000	20
41.4500	22
41.8000	6
42.1500	10
42.5000	11
42.8500	20
43.2000	10
43.5500	18
43.9000	4
44.2500	8
44.6000	6
44.9500	10
45.3000	5
45.6500	8
46.0000	5
46.3500	14
46.7000	12
47.0500	11
47.4000	12
47.7500	5
48.1000	7
48.4500	9
48.8000	11
49.1500	12
49.5000	10
49.8500	12
50.2000	16
50.5500	13
50.9000	17
51.2500	45
51.6000	158
51.9500	44
52.3000	13
52.6500	16
53.0000	16
53.3500	17
53.7000	22
54.0500	12
54.4000	46
54.7500	55
55.1000	22
55.4500	22
55.8000	18
56.1500	26
56.5000	13
56.8500	18
57.2000	16
57.5500	24
57.9000	23
58.2500	14
58.6000	13
58.9500	21
59.3000	17
59.6500	21
60.0000	20
60.3500	18
60.7000	19
61.0500	32
61.4000	42
61.7500	54
62.1000	27
62.4500	22
62.8000	25
63.1500	16
63.5000	20
63.8500	21
64.2000	27
64.5500	17
64.9000	19
65.2500	23
65.6000	58
65.9500	25
66.3000	23
66.6500	14
67.0000	22
67.3500	11
67.7000	16
68.0500	19
68.4000	12
68.7500	20
69.1000	13
69.4500	15
69.8000	12
70.1500	16
70.5000	13
70.8500	15
71.2000	17
71.5500	13
71.9000	13
72.2500	16
72.6000	18
72.9500	11
73.3000	4
73.6500	12
74.0000	7
74.3500	13
74.7000	12
75.0500	11
75.4000	9
75.7500	9
76.1000	5
76.4500	9
76.8000	8
77.1500	11
77.5000	7
77.8500	9
78.2000	14
78.5500	9
78.9000	9
79.2500	9
79.6000	10
79.9500	6
80.3000	8
80.6500	9
81.0000	13
81.3500	6
81.7000	7
82.0500	6
82.4000	9
82.7500	4
83.1000	7
83.4500	4
83.8000	5
84.1500	6
84.5000	12
84.8500	11
85.2000	4
85.5500	7
85.9000	8
86.2500	6
86.6000	18
86.9500	9
87.3000	6
87.6500	5
88.0000	6
88.3500	4
88.7000	5
89.0500	5
89.4000	9
89.7500	7
90.1000	10
90.4500	6
90.8000	9
91.1500	6
91.5000	5
91.8500	3
92.2000	6
92.5500	11
92.9000	9
93.2500	0
93.6000	3
93.9500	4
94.3000	7
94.6500	5
95.0000	6
95.3500	5
95.7000	8
96.0500	7
96.4000	6
96.7500	10
97.1000	4
97.4500	9
97.8000	4
98.1500	9
98.5000	2
98.8500	5
99.2000	4
99.5500	9
99.9000	6
100.2500	1
100.6000	3
100.9500	8
101.3000	8
101.6500	4
102.0000	3
102.3500	7
102.7000	10
103.0500	13
103.4000	13
103.7500	4
104.1000	9
104.4500	10
104.8000	6
105.1500	5
105.5000	9
105.8500	14
106.2000	13
106.5500	9
106.9000	13
107.2500	10
107.6000	9
107.9500	7
108.3000	10
108.6500	4
109.0000	11
109.3500	13
109.7000	15
110.0500	12
110.4000	12
110.7500	18
111.1000	10
111.4500	14
111.8000	7
112.1500	13
112.5000	9
112.8500	16
113.2000	13
113.5500	18
113.9000	14
114.2500	21
114.6000	18
114.9500	23
115.3000	16
115.6500	17
116.0000	16
116.3500	21
116.7000	21
117.0500	18
117.4000	15
117.7500	24
118.1000	14
118.4500	13
118.8000	14
119.1500	19
119.5000	30
119.8500	23
120.0000	15
; (Data for Range number 30)
_DRIVE='2THETA'
_STEPTIME=0.250000
_STEPSIZE=0.050000
_STEPMODE='C'
_START=25
_THETA=15
_2THETA=25
_KHI=0.000000
_PHI=0.000000
_X=0.000000
_Y=0.000000
_Z=0.000000
_DIVERGENCE=1.000000
_ANTISCATTER=1.000000
_DETECTOR=1
; S.C.
_HV=800
_GAIN=2.000000
_LLD=0.700000
_ULD=3.000000
_DETECTORSLIT='unkn'
_AUX1=0.000000
_AUX2=0.000000
_AUX3=0.000000
_TIMESTARTED=11807
_TEMPERATURE=26.84
_TEMP_RATE=0.000000
_TEMP_DELAY=0.000000
_KV=45
_MA=40
_RANGE_WL=1.540600
_3DPLANE=0
_2THETACOUNTS
25.0000	29
25.3500	38
25.7000	31
26.0500	21
26.4000	24
26.7500	32
27.1000	26
27.4500	36
27.8000	24
28.1500	31
28.5000	34
28.8500	33
29.2000	21
29.5500	20
29.9000	24
30.2500	22
30.6000	23
30.9500	25
31.3000	15
31.6500	23
32.0000	22
32.3500	18
32.7000	14
33.0500	13
33.4000	25
33.7500	12
34.1000	22
34.4500	8
34.8000	24
35.1500	14
35.5000	8
35.8500	10
36.2000	10
36.5500	9
36.9000	14
37.2500	18
37.6000	12
37.9500	12
38.3000	16
38.6500	13
39.0000	21
39.3500	13
39.7000	18
40.0500	13
40.4000	13
40.7500	7
41.1000	18
41.4500	5
41.8000	15
42.1500	15
42.5000	14
42.8500	12
43.2000	12
43.5500	12
43.9000	12
44.2500	11
44.6000	6
44.9500	8
45.3000	9
45.6500	8
46.0000	8
46.3500	6
46.7000	9
47.0500	16
47.4000	8
47.7500	18
48.1000	13
48.4500	17
48.8000	10
49.1500	8
49.5000	7
49.8500	11
50.2000	15
50.5500	12
50.9000	13
51.2500	44
51.6000	146
51.9500	41
52.3000	18
52.6500	18
53.0000	14
53.3500	17
53.7000	21
54.0500	21
54.4000	33
54.7500	32
55.1000	16
55.4500	22
55.8000	14
56.1500	14
56.5000	25
56.8500	25
57.2000	25
57.5500	21
57.9000	30
58.2500	13
58.6000	23
58.9500	36
59.3000	17
59.6500	17
60.0000	18
60.3500	20
60.7000	21
61.0500	27
61.4000	52
61.7500	47
62.1000	30
62.4500	36
62.8000	14
63.1500	23
63.5000	18
63.8500	22
64.2000	28
64.5500	17
64.9000	22
65.2500	43
65.6000	65
65.9500	30
66.3000	20
66.6500	15
67.0000	24
67.3500	15
67.7000	14
68.0500	16
68.4000	13
68.7500	20
69.1000	10
69.4500	15
69.8000	13
70.1500	13
70.5000	17
70.8500	25
71.2000	20
71.5500	9
71.9000	15
72.2500	11
72.6000	17
72.9500	14
73.3000	16
73.6500	9
74.0000	4
74.3500	11
74.7000	10
75.0500	12
75.4000	11
75.7500	14
76.1000	7
76.4500	5
76.8000	8
77.1500	11
77.5000	11
77.8500	8
78.2000	16
78.5500	13
78.9000	13
79.2500	13
79.6000	4
79.9500	7
80.3000	17
80.6500	10
81.0000	5
81.3500	7
81.7000	5
82.0500	8
82.4000	11
82.7500	6
83.1000	8
83.4500	9
83.8000	6
84.1500	7
84.5000	7
84.8500	7
85.2000	6
85.5500	4
85.9000	6
86.2500	2
86.6000	10
86.9500	10
87.3000	5
87.6500	8
88.0000	8
88.3500	6
88.7000	6
89.0500	7
89.4000	6
89.7500	11
90.1000	14
90.4500	14
90.8000	8
91.1500	8
91.5000	8
91.8500	8
92.2000	4
92.5500	9
92.9000	6
93.2500	4
93.6000	6
93.9500	5
94.3000	10
94.6500	4
95.0000	5
95.3500	8
95.7000	4
96.0500	8
96.4000	7
96.7500	13
97.1000	4
97.4500	2
97.8000	3
98.1500	7
98.5000	6
98.8500	5
99.2000	5
99.5500	9
99.9000	10
100.2500	14
100.6000	7
100.9500	11
101.3000	11
101.6500	9
102.0000	6
102.3500	12
102.7000	8
103.0500	2
103.4000	6
103.7500	13
104.1000	12
104.4500	8
104.8000	15
105.1500	12
105.5000	5
105.8500	12
106.2000	8
106.5500	9
106.9000	10
107.2500	12
107.6000	13
107.9500	17
108.3000	8
108.6500	15
109.0000	12
109.3500	12
109.7000	9
110.0500	8
110.4000	13
110.7500	10
111.1000	17
111.4500	18
111.8000	13
112.1500	20
112.5000	14
112.8500	23
113.2000	16
113.5500	28
113.9000	28
114.2500	26
114.6000	25
114.9500	27
115.3000	27
115.6500	17
116.0000	25
116.3500	16
116.7000	25
117.0500	17
117.4000	21
117.7500	17
118.1000	16
118.4500	18
118.8000	21
119.1500	27
119.5000	27
119.8500	28
120.0000	29